Time,header.seq,header.stamp.secs,header.stamp.nsecs,header.frame_id,orientation.x,orientation.y,orientation.z,orientation.w,orientation_covariance_0,orientation_covariance_1,orientation_covariance_2,orientation_covariance_3,orientation_covariance_4,orientation_covariance_5,orientation_covariance_6,orientation_covariance_7,orientation_covariance_8,angular_velocity.x,angular_velocity.y,angular_velocity.z,angular_velocity_covariance_0,angular_velocity_covariance_1,angular_velocity_covariance_2,angular_velocity_covariance_3,angular_velocity_covariance_4,angular_velocity_covariance_5,angular_velocity_covariance_6,angular_velocity_covariance_7,angular_velocity_covariance_8,linear_acceleration.x,linear_acceleration.y,linear_acceleration.z,linear_acceleration_covariance_0,linear_acceleration_covariance_1,linear_acceleration_covariance_2,linear_acceleration_covariance_3,linear_acceleration_covariance_4,linear_acceleration_covariance_5,linear_acceleration_covariance_6,linear_acceleration_covariance_7,linear_acceleration_covariance_8
1737286264.3026073,20725,1737286254,341182976,base_link,-0.012876224284031002,-0.00848295787998375,-0.7411198588098401,0.6711956474467609,1.0,0.0,0.0,0.0,1.0,0.0,0.0,0.0,1.0,0.3341483473777771,-0.23439030349254608,0.07984498888254168,1.2184696791468346e-07,0.0,0.0,0.0,1.2184696791468346e-07,0.0,0.0,0.0,1.2184696791468346e-07,0.04903325,-0.17651969999999875,10.24794925,8.999999999999999e-08,0.0,0.0,0.0,8.999999999999999e-08,0.0,0.0,0.0,8.999999999999999e-08
1737286264.3027349,20726,1737286254,441184768,base_link,-0.012476708827029828,-0.004729765313508291,-0.7411826604700374,0.6711707866672103,1.0,0.0,0.0,0.0,1.0,0.0,0.0,0.0,1.0,-0.17436054348945618,0.3175494968891144,0.19318076968193051,1.2184696791468346e-07,0.0,0.0,0.0,1.2184696791468346e-07,0.0,0.0,0.0,1.2184696791468346e-07,0.16671305,-0.16671304999999875,10.2773692,8.999999999999999e-08,0.0,0.0,0.0,8.999999999999999e-08,0.0,0.0,0.0,8.999999999999999e-08
1737286264.3028693,20727,1737286254,541187840,base_link,-0.013902257764241302,0.0003406631794855645,-0.741618195424628,0.6706780624060793,1.0,0.0,0.0,0.0,1.0,0.0,0.0,0.0,1.0,-0.7390952110290527,0.18821553885936737,0.07629778236150739,1.2184696791468346e-07,0.0,0.0,0.0,1.2184696791468346e-07,0.0,0.0,0.0,1.2184696791468346e-07,0.12748645,-0.18632634999999875,10.22833595,8.999999999999999e-08,0.0,0.0,0.0,8.999999999999999e-08,0.0,0.0,0.0,8.999999999999999e-08
1737286264.3029695,20728,1737286254,641189888,base_link,-0.013187869881110108,-0.001954054646301407,-0.7420171396179309,0.6702483317932706,1.0,0.0,0.0,0.0,1.0,0.0,0.0,0.0,1.0,-0.31141597032546997,0.06841301172971724,-0.07463655620813371,1.2184696791468346e-07,0.0,0.0,0.0,1.2184696791468346e-07,0.0,0.0,0.0,1.2184696791468346e-07,-0.1372931,-0.4314925999999987,10.14988275,8.999999999999999e-08,0.0,0.0,0.0,8.999999999999999e-08,0.0,0.0,0.0,8.999999999999999e-08
1737286264.3031366,20729,1737286254,741191680,base_link,-0.015253748617480438,-0.007866181046442355,-0.7421938025931011,0.6699655257856574,1.0,0.0,0.0,0.0,1.0,0.0,0.0,0.0,1.0,0.2360343337059021,-0.4191771447658539,-0.14149278402328486,1.2184696791468346e-07,0.0,0.0,0.0,1.2184696791468346e-07,0.0,0.0,0.0,1.2184696791468346e-07,-0.04903325,-0.40207264999999875,9.9635564,8.999999999999999e-08,0.0,0.0,0.0,8.999999999999999e-08,0.0,0.0,0.0,8.999999999999999e-08
1737286264.3033457,20730,1737286254,841193728,base_link,-0.017955313559656967,-0.0108906284981801,-0.7405440008923797,0.671679673407046,1.0,0.0,0.0,0.0,1.0,0.0,0.0,0.0,1.0,-0.09625370055437088,-0.1972679495811462,0.1333446651697159,1.2184696791468346e-07,0.0,0.0,0.0,1.2184696791468346e-07,0.0,0.0,0.0,1.2184696791468346e-07,0.20593965,-0.14709974999999875,10.11065615,8.999999999999999e-08,0.0,0.0,0.0,8.999999999999999e-08,0.0,0.0,0.0,8.999999999999999e-08
1737286264.3034945,20731,1737286254,941197056,base_link,-0.0227429894000729,-0.009293502701239888,-0.7392333551999426,0.6730010652298594,1.0,0.0,0.0,0.0,1.0,0.0,0.0,0.0,1.0,-0.6618509292602539,0.28148216009140015,0.04239588603377339,1.2184696791468346e-07,0.0,0.0,0.0,1.2184696791468346e-07,0.0,0.0,0.0,1.2184696791468346e-07,-0.02941995,-0.2549728999999987,10.1204628,8.999999999999999e-08,0.0,0.0,0.0,8.999999999999999e-08,0.0,0.0,0.0,8.999999999999999e-08
1737286264.303614,20732,1737286255,41198848,base_link,-0.02305472416366313,-0.006362429632126368,-0.7374914947511164,0.6749328072872719,1.0,0.0,0.0,0.0,1.0,0.0,0.0,0.0,1.0,-0.3787567913532257,0.07453379780054092,0.03538679331541061,1.2184696791468346e-07,0.0,0.0,0.0,1.2184696791468346e-07,0.0,0.0,0.0,1.2184696791468346e-07,0.12748645,-0.35303939999999884,9.89490985,8.999999999999999e-08,0.0,0.0,0.0,8.999999999999999e-08,0.0,0.0,0.0,8.999999999999999e-08
1737286264.3037553,20733,1737286255,141197312,base_link,-0.024713909674025536,-0.00882482788911488,-0.7362052438102986,0.6762493505117552,1.0,0.0,0.0,0.0,1.0,0.0,0.0,0.0,1.0,0.3518626093864441,-0.4468387961387634,-0.010397223755717222,1.2184696791468346e-07,0.0,0.0,0.0,1.2184696791468346e-07,0.0,0.0,0.0,1.2184696791468346e-07,0.0,-0.3138127999999988,9.8851032,8.999999999999999e-08,0.0,0.0,0.0,8.999999999999999e-08,0.0,0.0,0.0,8.999999999999999e-08
1737286264.30387,20734,1737286255,241199360,base_link,-0.02894405083885885,-0.014528483742815785,-0.7367455836144579,0.6753940406205582,1.0,0.0,0.0,0.0,1.0,0.0,0.0,0.0,1.0,0.4173623025417328,-0.07020967453718185,0.04195912182331086,1.2184696791468346e-07,0.0,0.0,0.0,1.2184696791468346e-07,0.0,0.0,0.0,1.2184696791468346e-07,0.0,-0.12748644999999875,10.11065615,8.999999999999999e-08,0.0,0.0,0.0,8.999999999999999e-08,0.0,0.0,0.0,8.999999999999999e-08
1737286264.3040118,20735,1737286255,341202432,base_link,-0.030205124556985527,-0.014088587316059272,-0.7469888800517649,0.6640005837625029,1.0,0.0,0.0,0.0,1.0,0.0,0.0,0.0,1.0,-0.15233595669269562,0.039210315793752615,-0.4306364357471466,1.2184696791468346e-07,0.0,0.0,0.0,1.2184696791468346e-07,0.0,0.0,0.0,1.2184696791468346e-07,0.12748645,-0.3138127999999988,10.0616229,8.999999999999999e-08,0.0,0.0,0.0,8.999999999999999e-08,0.0,0.0,0.0,8.999999999999999e-08
1737286264.3042126,20736,1737286255,441204480,base_link,-0.03096595098242227,-0.010901962335233897,-0.7676667113613891,0.6400078728926585,1.0,0.0,0.0,0.0,1.0,0.0,0.0,0.0,1.0,-0.7014706134796143,0.05987168103456489,-0.6701413989067078,1.2184696791468346e-07,0.0,0.0,0.0,1.2184696791468346e-07,0.0,0.0,0.0,1.2184696791468346e-07,0.04903325,-0.13729309999999875,10.1008495,8.999999999999999e-08,0.0,0.0,0.0,8.999999999999999e-08,0.0,0.0,0.0,8.999999999999999e-08
1737286264.3045008,20737,1737286255,541206272,base_link,-0.03145228032410186,-0.008943509466414262,-0.7970544689039829,0.6030215098162155,1.0,0.0,0.0,0.0,1.0,0.0,0.0,0.0,1.0,-0.5798477530479431,-0.019913872703910002,-1.049985647201538,1.2184696791468346e-07,0.0,0.0,0.0,1.2184696791468346e-07,0.0,0.0,0.0,1.2184696791468346e-07,-0.02941995,-0.2843928499999988,9.85568325,8.999999999999999e-08,0.0,0.0,0.0,8.999999999999999e-08,0.0,0.0,0.0,8.999999999999999e-08
1737286264.3046148,20738,1737286255,641208576,base_link,-0.030499356516483205,-0.01033206608840501,-0.8307622383121305,0.5556951871818254,1.0,0.0,0.0,0.0,1.0,0.0,0.0,0.0,1.0,0.1637718677520752,0.049829263240098794,-1.3010849952697754,1.2184696791468346e-07,0.0,0.0,0.0,1.2184696791468346e-07,0.0,0.0,0.0,1.2184696791468346e-07,0.0,-0.22555294999999875,10.2969825,8.999999999999999e-08,0.0,0.0,0.0,8.999999999999999e-08,0.0,0.0,0.0,8.999999999999999e-08
1737286264.3048325,20739,1737286255,741210624,base_link,-0.029581104801219366,-0.014458995143662693,-0.8651358088300531,0.5004557202971552,1.0,0.0,0.0,0.0,1.0,0.0,0.0,0.0,1.0,0.21677197515964508,0.12095397710800154,-1.3571228981018066,1.2184696791468346e-07,0.0,0.0,0.0,1.2184696791468346e-07,0.0,0.0,0.0,1.2184696791468346e-07,0.0196133,-0.3138127999999988,9.81645665,8.999999999999999e-08,0.0,0.0,0.0,8.999999999999999e-08,0.0,0.0,0.0,8.999999999999999e-08
1737286264.305115,20740,1737286255,841212672,base_link,-0.02937387755615594,-0.012155254984861426,-0.8976022870823449,0.439658457576006,1.0,0.0,0.0,0.0,1.0,0.0,0.0,0.0,1.0,-0.22023777663707733,-0.0305615924298765,-1.4138643741607666,1.2184696791468346e-07,0.0,0.0,0.0,1.2184696791468346e-07,0.0,0.0,0.0,1.2184696791468346e-07,-0.0392266,-0.10787314999999882,9.7085835,8.999999999999999e-08,0.0,0.0,0.0,8.999999999999999e-08,0.0,0.0,0.0,8.999999999999999e-08
1737286264.3055553,20741,1737286255,941216000,base_link,-0.024362868354135953,-0.016068574839779633,-0.9270624780355867,0.373769197990812,1.0,0.0,0.0,0.0,1.0,0.0,0.0,0.0,1.0,0.20583689212799072,-0.07016957551240939,-1.5165207386016846,1.2184696791468346e-07,0.0,0.0,0.0,1.2184696791468346e-07,0.0,0.0,0.0,1.2184696791468346e-07,0.08825985,-0.34323274999999875,9.9831697,8.999999999999999e-08,0.0,0.0,0.0,8.999999999999999e-08,0.0,0.0,0.0,8.999999999999999e-08
1737286264.3058906,20742,1737286256,41218304,base_link,-0.02104109817289685,-0.016209656222249496,-0.9511440715491826,0.30760278670662006,1.0,0.0,0.0,0.0,1.0,0.0,0.0,0.0,1.0,-0.4252144694328308,0.19012100994586928,-1.3715075254440308,1.2184696791468346e-07,0.0,0.0,0.0,1.2184696791468346e-07,0.0,0.0,0.0,1.2184696791468346e-07,0.0,-0.20593964999999875,10.2381426,8.999999999999999e-08,0.0,0.0,0.0,8.999999999999999e-08,0.0,0.0,0.0,8.999999999999999e-08
1737286264.3062482,20743,1737286256,141221888,base_link,-0.015997757136272307,-0.01942959869164631,-0.9701386511481997,0.24124170454057475,1.0,0.0,0.0,0.0,1.0,0.0,0.0,0.0,1.0,-0.05131056159734726,0.09774019569158539,-1.2842090129852295,1.2184696791468346e-07,0.0,0.0,0.0,1.2184696791468346e-07,0.0,0.0,0.0,1.2184696791468346e-07,-0.04903325,-0.15690639999999878,9.93413645,8.999999999999999e-08,0.0,0.0,0.0,8.999999999999999e-08,0.0,0.0,0.0,8.999999999999999e-08
1737286264.3064861,20744,1737286256,241223936,base_link,-0.010289005870616515,-0.016047100684661298,-0.9837632636439055,0.178455787304594,1.0,0.0,0.0,0.0,1.0,0.0,0.0,0.0,1.0,-0.21222497522830963,0.3194873929023741,-1.1495999097824097,1.2184696791468346e-07,0.0,0.0,0.0,1.2184696791468346e-07,0.0,0.0,0.0,1.2184696791468346e-07,-0.0196133,-0.22555294999999878,10.03220295,8.999999999999999e-08,0.0,0.0,0.0,8.999999999999999e-08,0.0,0.0,0.0,8.999999999999999e-08
1737286264.3067439,20745,1737286256,341225984,base_link,-0.007747147207010108,-0.006226771136507382,-0.9928665634650637,0.11881580780536333,1.0,0.0,0.0,0.0,1.0,0.0,0.0,0.0,1.0,-0.8680469989776611,0.2753942012786864,-1.086327075958252,1.2184696791468346e-07,0.0,0.0,0.0,1.2184696791468346e-07,0.0,0.0,0.0,1.2184696791468346e-07,0.06864655,-0.06864654999999878,9.97336305,8.999999999999999e-08,0.0,0.0,0.0,8.999999999999999e-08,0.0,0.0,0.0,8.999999999999999e-08
1737286264.3070261,20746,1737286256,441228288,base_link,-0.008179469675723897,0.0010194641376758927,-0.9980036993171928,0.06261527862985183,1.0,0.0,0.0,0.0,1.0,0.0,0.0,0.0,1.0,-0.8187267780303955,0.239159658551216,-1.0394095182418823,1.2184696791468346e-07,0.0,0.0,0.0,1.2184696791468346e-07,0.0,0.0,0.0,1.2184696791468346e-07,-0.0980665,-0.21574629999999878,9.87529655,8.999999999999999e-08,0.0,0.0,0.0,8.999999999999999e-08,0.0,0.0,0.0,8.999999999999999e-08
1737286264.3074844,20747,1737286256,541231872,base_link,-0.006992468721759918,0.013316152834352906,-0.9998311365139783,0.010558594226213802,1.0,0.0,0.0,0.0,1.0,0.0,0.0,0.0,1.0,-0.3753342628479004,-0.03391657024621976,-1.0307691097259521,1.2184696791468346e-07,0.0,0.0,0.0,1.2184696791468346e-07,0.0,0.0,0.0,1.2184696791468346e-07,0.0,-0.1372930999999988,9.80665,8.999999999999999e-08,0.0,0.0,0.0,8.999999999999999e-08,0.0,0.0,0.0,8.999999999999999e-08
1737286264.3080273,20748,1737286256,641234176,base_link,-0.007878578231815744,0.0207356625278783,-0.9989660967121143,-0.039682463687849334,1.0,0.0,0.0,0.0,1.0,0.0,0.0,0.0,1.0,0.1821051687002182,-0.26586487889289867,-1.1301640272140503,1.2184696791468346e-07,0.0,0.0,0.0,1.2184696791468346e-07,0.0,0.0,0.0,1.2184696791468346e-07,-0.10787315,-0.18632634999999878,9.8262633,8.999999999999999e-08,0.0,0.0,0.0,8.999999999999999e-08,0.0,0.0,0.0,8.999999999999999e-08
1737286264.3081658,20749,1737286256,741236480,base_link,-0.007568754810234711,0.026927380550550436,-0.9957913608982937,-0.0872765471798263,1.0,0.0,0.0,0.0,1.0,0.0,0.0,0.0,1.0,0.3335441052913666,-0.035043820738792544,-1.0453044176101685,1.2184696791468346e-07,0.0,0.0,0.0,1.2184696791468346e-07,0.0,0.0,0.0,1.2184696791468346e-07,-0.00980665,-0.04903324999999878,9.9439431,8.999999999999999e-08,0.0,0.0,0.0,8.999999999999999e-08,0.0,0.0,0.0,8.999999999999999e-08
1737286264.308787,20750,1737286256,841238784,base_link,-0.007764449739271611,0.03050192205670249,-0.9903059635538998,-0.13529022366998744,1.0,0.0,0.0,0.0,1.0,0.0,0.0,0.0,1.0,0.3452923595905304,-0.07285977154970182,-1.0691543817520142,1.2184696791468346e-07,0.0,0.0,0.0,1.2184696791468346e-07,0.0,0.0,0.0,1.2184696791468346e-07,-0.12748645,-0.21574629999999878,9.91452315,8.999999999999999e-08,0.0,0.0,0.0,8.999999999999999e-08,0.0,0.0,0.0,8.999999999999999e-08
1737286264.3090675,20751,1737286256,941240832,base_link,-0.007210349090264879,0.0328721835361348,-0.9825384603284294,-0.18299072214460127,1.0,0.0,0.0,0.0,1.0,0.0,0.0,0.0,1.0,-0.0714879110455513,0.08657674491405473,-1.1217025518417358,1.2184696791468346e-07,0.0,0.0,0.0,1.2184696791468346e-07,0.0,0.0,0.0,1.2184696791468346e-07,0.0196133,-0.07845319999999878,10.03220295,8.999999999999999e-08,0.0,0.0,0.0,8.999999999999999e-08,0.0,0.0,0.0,8.999999999999999e-08
1737286264.31087,20752,1737286257,41243136,base_link,-0.006849831850186771,0.03474321468037297,-0.9722237289050912,-0.2313590495121755,1.0,0.0,0.0,0.0,1.0,0.0,0.0,0.0,1.0,-0.5901556611061096,0.02014893665909756,-0.8944804072380066,1.2184696791468346e-07,0.0,0.0,0.0,1.2184696791468346e-07,0.0,0.0,0.0,1.2184696791468346e-07,-0.1372931,-0.3040061499999988,10.002783,8.999999999999999e-08,0.0,0.0,0.0,8.999999999999999e-08,0.0,0.0,0.0,8.999999999999999e-08
1737286264.311713,20753,1737286257,141245952,base_link,-0.01006960952593288,0.02863568190542398,-0.9592472862656287,-0.2809328113229807,1.0,0.0,0.0,0.0,1.0,0.0,0.0,0.0,1.0,0.6472328901290894,-0.0005200337618590656,-1.024556279182434,1.2184696791468346e-07,0.0,0.0,0.0,1.2184696791468346e-07,0.0,0.0,0.0,1.2184696791468346e-07,-0.18632635,-0.23535959999999875,10.1008495,8.999999999999999e-08,0.0,0.0,0.0,8.999999999999999e-08,0.0,0.0,0.0,8.999999999999999e-08
1737286264.3120606,20754,1737286257,241248256,base_link,-0.005182572863188112,0.01198056265328176,-0.9439449219055478,-0.3298447990582202,1.0,0.0,0.0,0.0,1.0,0.0,0.0,0.0,1.0,0.1813892424106598,0.35004448890686024,-1.0675501823425293,1.2184696791468346e-07,0.0,0.0,0.0,1.2184696791468346e-07,0.0,0.0,0.0,1.2184696791468346e-07,0.00980665,-0.42168594999999875,10.07142955,8.999999999999999e-08,0.0,0.0,0.0,8.999999999999999e-08,0.0,0.0,0.0,8.999999999999999e-08
1737286264.312873,20755,1737286257,341250816,base_link,-0.0013720953050448265,-0.020179347635135625,-0.9248531853123232,-0.3797861199427171,1.0,0.0,0.0,0.0,1.0,0.0,0.0,0.0,1.0,0.5954177975654602,0.20567791163921342,-1.019963026046753,1.2184696791468346e-07,0.0,0.0,0.0,1.2184696791468346e-07,0.0,0.0,0.0,1.2184696791468346e-07,-0.0196133,-0.5099457999999988,10.002783,8.999999999999999e-08,0.0,0.0,0.0,8.999999999999999e-08,0.0,0.0,0.0,8.999999999999999e-08
1737286264.3131137,20756,1737286257,441253376,base_link,0.004349476534177141,-0.029459212985870356,-0.9026190774601499,-0.4294089400898866,1.0,0.0,0.0,0.0,1.0,0.0,0.0,0.0,1.0,0.5694447755813599,-0.2304407656192781,-1.125712275505066,1.2184696791468346e-07,0.0,0.0,0.0,1.2184696791468346e-07,0.0,0.0,0.0,1.2184696791468346e-07,-0.2353596,0.009806650000001247,10.18910935,8.999999999999999e-08,0.0,0.0,0.0,8.999999999999999e-08,0.0,0.0,0.0,8.999999999999999e-08
1737286264.313173,20757,1737286257,541255680,base_link,0.009144334981800945,-0.018845216885875045,-0.8774234820435595,-0.4792590866085069,1.0,0.0,0.0,0.0,1.0,0.0,0.0,0.0,1.0,0.0014334004372358322,-0.23118829727172865,-1.2368870973587036,1.2184696791468346e-07,0.0,0.0,0.0,1.2184696791468346e-07,0.0,0.0,0.0,1.2184696791468346e-07,-0.24516625,0.04903325000000127,10.40485565,8.999999999999999e-08,0.0,0.0,0.0,8.999999999999999e-08,0.0,0.0,0.0,8.999999999999999e-08
1737286264.313299,20758,1737286257,641258496,base_link,0.009707873263639871,0.0006986713289475555,-0.8494359098021902,-0.5276020320218604,1.0,0.0,0.0,0.0,1.0,0.0,0.0,0.0,1.0,-0.4453282952308655,-0.20518608391284957,-1.1642870903015137,1.2184696791468346e-07,0.0,0.0,0.0,1.2184696791468346e-07,0.0,0.0,0.0,1.2184696791468346e-07,-0.2549729,-0.029419949999998744,10.2381426,8.999999999999999e-08,0.0,0.0,0.0,8.999999999999999e-08,0.0,0.0,0.0,8.999999999999999e-08
1737286264.3134744,20759,1737286257,741260800,base_link,0.005336377251384893,0.017035683056036355,-0.8182444947361387,-0.5745931216214183,1.0,0.0,0.0,0.0,1.0,0.0,0.0,0.0,1.0,-0.8772193193435669,0.004097301978617774,-1.086260199546814,1.2184696791468346e-07,0.0,0.0,0.0,1.2184696791468346e-07,0.0,0.0,0.0,1.2184696791468346e-07,-0.2353596,-0.42168594999999875,10.002783,8.999999999999999e-08,0.0,0.0,0.0,8.999999999999999e-08,0.0,0.0,0.0,8.999999999999999e-08
1737286264.3137848,20760,1737286257,841263104,base_link,-0.004475235042221496,0.024126804646655405,-0.7847483647761396,-0.6193285667156279,1.0,0.0,0.0,0.0,1.0,0.0,0.0,0.0,1.0,0.3128111958503723,-0.20415891706943523,-1.0067585706710815,1.2184696791468346e-07,0.0,0.0,0.0,1.2184696791468346e-07,0.0,0.0,0.0,1.2184696791468346e-07,-0.1569064,-0.42168594999999875,9.99297635,8.999999999999999e-08,0.0,0.0,0.0,8.999999999999999e-08,0.0,0.0,0.0,8.999999999999999e-08
1737286264.3141785,20761,1737286257,941264896,base_link,-0.007474669692048944,0.025949111876808994,-0.7492230350550361,-0.6617670410716445,1.0,0.0,0.0,0.0,1.0,0.0,0.0,0.0,1.0,0.4232170283794403,-0.06988354027271285,-1.1378111839294434,1.2184696791468346e-07,0.0,0.0,0.0,1.2184696791468346e-07,0.0,0.0,0.0,1.2184696791468346e-07,-0.0784532,-0.38245934999999875,10.091042850000001,8.999999999999999e-08,0.0,0.0,0.0,8.999999999999999e-08,0.0,0.0,0.0,8.999999999999999e-08
1737286264.3149946,20762,1737286258,41267456,base_link,0.0007098227104564997,0.021662817209387026,-0.7128177526427428,-0.7010143151317393,1.0,0.0,0.0,0.0,1.0,0.0,0.0,0.0,1.0,0.19645161926746368,0.2786211371421813,-1.0763319730758667,1.2184696791468346e-07,0.0,0.0,0.0,1.2184696791468346e-07,0.0,0.0,0.0,1.2184696791468346e-07,0.00980665,-0.17651969999999875,10.16949605,8.999999999999999e-08,0.0,0.0,0.0,8.999999999999999e-08,0.0,0.0,0.0,8.999999999999999e-08
1737286264.3163474,20763,1737286258,141269504,base_link,0.01720934973657433,0.008756523531012476,-0.6757421476903054,-0.7368851412616408,1.0,0.0,0.0,0.0,1.0,0.0,0.0,0.0,1.0,-0.021553561091423035,0.14708697795867906,-1.1039271354675293,1.2184696791468346e-07,0.0,0.0,0.0,1.2184696791468346e-07,0.0,0.0,0.0,1.2184696791468346e-07,0.1176798,-0.44129924999999876,10.0223963,8.999999999999999e-08,0.0,0.0,0.0,8.999999999999999e-08,0.0,0.0,0.0,8.999999999999999e-08
1737286264.3178089,20764,1737286258,241271808,base_link,0.0205693025012636,0.0025314246892234583,-0.6411701292568661,-0.767118870210079,1.0,0.0,0.0,0.0,1.0,0.0,0.0,0.0,1.0,0.45308902859687805,-0.26526114344596874,-0.8307480216026306,1.2184696791468346e-07,0.0,0.0,0.0,1.2184696791468346e-07,0.0,0.0,0.0,1.2184696791468346e-07,-0.51975245,-0.5001391499999988,10.20872265,8.999999999999999e-08,0.0,0.0,0.0,8.999999999999999e-08,0.0,0.0,0.0,8.999999999999999e-08
1737286264.3183208,20765,1737286258,341273856,base_link,0.01822667569221255,0.006823991653839709,-0.614664955303074,-0.7885481685689146,1.0,0.0,0.0,0.0,1.0,0.0,0.0,0.0,1.0,-0.05334663391113281,-0.1918414980173112,-0.8191903829574585,1.2184696791468346e-07,0.0,0.0,0.0,1.2184696791468346e-07,0.0,0.0,0.0,1.2184696791468346e-07,-0.26477955,-0.30400614999999875,10.13026945,8.999999999999999e-08,0.0,0.0,0.0,8.999999999999999e-08,0.0,0.0,0.0,8.999999999999999e-08
1737286264.3184345,20766,1737286258,441276416,base_link,0.012964976439430417,0.014351936532438412,-0.598869230643631,-0.800613249885361,1.0,0.0,0.0,0.0,1.0,0.0,0.0,0.0,1.0,0.0008335886523127556,-0.13410322368144992,-0.3147699236869812,1.2184696791468346e-07,0.0,0.0,0.0,1.2184696791468346e-07,0.0,0.0,0.0,1.2184696791468346e-07,-0.18632635,-0.2549728999999988,9.95374975,8.999999999999999e-08,0.0,0.0,0.0,8.999999999999999e-08,0.0,0.0,0.0,8.999999999999999e-08
1737286264.3185952,20767,1737286258,541278464,base_link,0.006232312222382888,0.02242939055980678,-0.5932931921862387,-0.8046497802329542,1.0,0.0,0.0,0.0,1.0,0.0,0.0,0.0,1.0,0.2956792712211609,-0.47892338037490845,0.11933173239231115,1.2184696791468346e-07,0.0,0.0,0.0,1.2184696791468346e-07,0.0,0.0,0.0,1.2184696791468346e-07,-0.0980665,-0.4216859499999988,9.91452315,8.999999999999999e-08,0.0,0.0,0.0,8.999999999999999e-08,0.0,0.0,0.0,8.999999999999999e-08
1737286264.3187644,20768,1737286258,641281024,base_link,0.009390717898577473,0.02748587059326618,-0.5955458927266476,-0.8027960083305721,1.0,0.0,0.0,0.0,1.0,0.0,0.0,0.0,1.0,-0.42945486307144165,0.012930829077959078,0.148603156208992,1.2184696791468346e-07,0.0,0.0,0.0,1.2184696791468346e-07,0.0,0.0,0.0,1.2184696791468346e-07,-0.0588399,-0.2745861999999987,10.1008495,8.999999999999999e-08,0.0,0.0,0.0,8.999999999999999e-08,0.0,0.0,0.0,8.999999999999999e-08
1737286264.3191006,20769,1737286258,741283328,base_link,0.0093610123955023,0.03111646504911839,-0.6033233449494176,-0.7968344109592811,1.0,0.0,0.0,0.0,1.0,0.0,0.0,0.0,1.0,-0.29243722558021545,0.1239276677370072,0.44906386733055115,1.2184696791468346e-07,0.0,0.0,0.0,1.2184696791468346e-07,0.0,0.0,0.0,1.2184696791468346e-07,-0.12748645,-0.4609125499999988,9.85568325,8.999999999999999e-08,0.0,0.0,0.0,8.999999999999999e-08,0.0,0.0,0.0,8.999999999999999e-08
1737286264.3197575,20770,1737286258,841286144,base_link,0.013950776630339869,0.033369003842076174,-0.6139046589036871,-0.7885511747441287,1.0,0.0,0.0,0.0,1.0,0.0,0.0,0.0,1.0,0.14947353303432465,0.01725024171173577,0.3591765761375427,1.2184696791468346e-07,0.0,0.0,0.0,1.2184696791468346e-07,0.0,0.0,0.0,1.2184696791468346e-07,-0.16671305,-0.5099457999999988,9.8654899,8.999999999999999e-08,0.0,0.0,0.0,8.999999999999999e-08,0.0,0.0,0.0,8.999999999999999e-08
1737286264.3198235,20771,1737286258,941288192,base_link,0.016835062003057715,0.03178263216821895,-0.6265661116215222,-0.778537958449875,1.0,0.0,0.0,0.0,1.0,0.0,0.0,0.0,1.0,0.2629718780517578,-0.01877926848828791,0.14569488167762756,1.2184696791468346e-07,0.0,0.0,0.0,1.2184696791468346e-07,0.0,0.0,0.0,1.2184696791468346e-07,-0.0784532,-0.5099457999999988,10.091042850000001,8.999999999999999e-08,0.0,0.0,0.0,8.999999999999999e-08,0.0,0.0,0.0,8.999999999999999e-08
1737286264.3200924,20772,1737286259,41290496,base_link,0.01644103785651436,0.030521462578519225,-0.6409420797566601,-0.766805961761824,1.0,0.0,0.0,0.0,1.0,0.0,0.0,0.0,1.0,0.2183971405029297,-0.11093368381261819,0.5510210990905762,1.2184696791468346e-07,0.0,0.0,0.0,1.2184696791468346e-07,0.0,0.0,0.0,1.2184696791468346e-07,-0.08825985,-0.30400614999999875,10.18910935,8.999999999999999e-08,0.0,0.0,0.0,8.999999999999999e-08,0.0,0.0,0.0,8.999999999999999e-08
1737286264.3201525,20773,1737286259,141293056,base_link,0.01929441723224903,0.030524030024826756,-0.6540652165050727,-0.7555757418107624,1.0,0.0,0.0,0.0,1.0,0.0,0.0,0.0,1.0,-0.29802626371383667,0.2006868273019791,0.3215171992778778,1.2184696791468346e-07,0.0,0.0,0.0,1.2184696791468346e-07,0.0,0.0,0.0,1.2184696791468346e-07,-0.16671305,-0.5099457999999988,10.16949605,8.999999999999999e-08,0.0,0.0,0.0,8.999999999999999e-08,0.0,0.0,0.0,8.999999999999999e-08
1737286264.3202758,20774,1737286259,241295872,base_link,0.015708284314782973,0.029691858475421717,-0.6650486674668348,-0.7460441764699656,1.0,0.0,0.0,0.0,1.0,0.0,0.0,0.0,1.0,0.2936878800392151,-0.09988357871770857,0.06260703504085542,1.2184696791468346e-07,0.0,0.0,0.0,1.2184696791468346e-07,0.0,0.0,0.0,1.2184696791468346e-07,-0.04903325,-0.5197524499999987,10.03220295,8.999999999999999e-08,0.0,0.0,0.0,8.999999999999999e-08,0.0,0.0,0.0,8.999999999999999e-08
1737286264.3204727,20775,1737286259,341298432,base_link,0.010881841159734307,0.028724329143822586,-0.6750818184653754,-0.7371031385265523,1.0,0.0,0.0,0.0,1.0,0.0,0.0,0.0,1.0,0.46505454182624817,-0.2992537319660187,0.1302047669887543,1.2184696791468346e-07,0.0,0.0,0.0,1.2184696791468346e-07,0.0,0.0,0.0,1.2184696791468346e-07,-0.1765197,-0.3530393999999987,10.1008495,8.999999999999999e-08,0.0,0.0,0.0,8.999999999999999e-08,0.0,0.0,0.0,8.999999999999999e-08
1737286264.3209245,20776,1737286259,441300992,base_link,0.006371089012553675,0.030193731186554232,-0.68259779216766,-0.730142453189557,1.0,0.0,0.0,0.0,1.0,0.0,0.0,0.0,1.0,0.39235252141952515,-0.2191396802663803,0.028454590588808087,1.2184696791468346e-07,0.0,0.0,0.0,1.2184696791468346e-07,0.0,0.0,0.0,1.2184696791468346e-07,-0.18632635,-0.4118792999999987,10.1204628,8.999999999999999e-08,0.0,0.0,0.0,8.999999999999999e-08,0.0,0.0,0.0,8.999999999999999e-08
1737286264.3217442,20777,1737286259,541303040,base_link,0.004545656052007524,0.028548462743868963,-0.6868266726882176,-0.7262461318107318,1.0,0.0,0.0,0.0,1.0,0.0,0.0,0.0,1.0,-0.12367211282253265,0.05771568417549134,0.0289021860808134,1.2184696791468346e-07,0.0,0.0,0.0,1.2184696791468346e-07,0.0,0.0,0.0,1.2184696791468346e-07,-0.0392266,-0.2745861999999988,10.0812362,8.999999999999999e-08,0.0,0.0,0.0,8.999999999999999e-08,0.0,0.0,0.0,8.999999999999999e-08
1737286264.3218894,20778,1737286259,641305856,base_link,0.0070950414118297,0.02479131329959935,-0.6885027123410192,-0.7247751832611994,1.0,0.0,0.0,0.0,1.0,0.0,0.0,0.0,1.0,-0.27383682131767273,0.24997073411941528,0.04461231827735898,1.2184696791468346e-07,0.0,0.0,0.0,1.2184696791468346e-07,0.0,0.0,0.0,1.2184696791468346e-07,-0.14709975,-0.5491723999999988,9.87529655,8.999999999999999e-08,0.0,0.0,0.0,8.999999999999999e-08,0.0,0.0,0.0,8.999999999999999e-08
1737286264.322691,20779,1737286259,741308416,base_link,0.011959031067469582,0.021547013940901985,-0.6883124317142699,-0.7249956579964781,1.0,0.0,0.0,0.0,1.0,0.0,0.0,0.0,1.0,-0.4138081967830658,0.22508692741394046,0.18901553750038144,1.2184696791468346e-07,0.0,0.0,0.0,1.2184696791468346e-07,0.0,0.0,0.0,1.2184696791468346e-07,-0.22555295,-0.4903324999999987,10.0420096,8.999999999999999e-08,0.0,0.0,0.0,8.999999999999999e-08,0.0,0.0,0.0,8.999999999999999e-08
1737286264.322721,20780,1737286259,841310976,base_link,0.013653551907191811,0.012130893970750302,-0.686586248421733,-0.7268189220225065,1.0,0.0,0.0,0.0,1.0,0.0,0.0,0.0,1.0,0.44107893109321594,0.15684270858764648,-0.06260233372449876,1.2184696791468346e-07,0.0,0.0,0.0,1.2184696791468346e-07,0.0,0.0,0.0,1.2184696791468346e-07,-0.2157463,-0.5197524499999988,9.95374975,8.999999999999999e-08,0.0,0.0,0.0,8.999999999999999e-08,0.0,0.0,0.0,8.999999999999999e-08
1737286264.3231354,20781,1737286259,941313792,base_link,0.01563088205804912,0.00835128099858963,-0.6860978210780674,-0.7272934150284176,1.0,0.0,0.0,0.0,1.0,0.0,0.0,0.0,1.0,-0.5313053727149963,0.13413634896278384,0.24768248200416562,1.2184696791468346e-07,0.0,0.0,0.0,1.2184696791468346e-07,0.0,0.0,0.0,1.2184696791468346e-07,-0.1176798,-0.42168594999999875,9.99297635,8.999999999999999e-08,0.0,0.0,0.0,8.999999999999999e-08,0.0,0.0,0.0,8.999999999999999e-08
1737286264.329934,20782,1737286260,41316608,base_link,0.01201016786904143,0.010418038028959395,-0.6844273362625076,-0.7289077045332921,1.0,0.0,0.0,0.0,1.0,0.0,0.0,0.0,1.0,-0.3569100499153137,0.09104372560977934,-0.11129315197467805,1.2184696791468346e-07,0.0,0.0,0.0,1.2184696791468346e-07,0.0,0.0,0.0,1.2184696791468346e-07,-0.4314926,-0.5197524499999988,9.7674234,8.999999999999999e-08,0.0,0.0,0.0,8.999999999999999e-08,0.0,0.0,0.0,8.999999999999999e-08
1737286264.3303432,20783,1737286260,141319424,base_link,0.008122588574903111,0.009689981112375992,-0.6827723039338793,-0.7305218058358743,1.0,0.0,0.0,0.0,1.0,0.0,0.0,0.0,1.0,-0.1530604511499405,0.04071298986673354,-0.13266204297542572,1.2184696791468346e-07,0.0,0.0,0.0,1.2184696791468346e-07,0.0,0.0,0.0,1.2184696791468346e-07,-0.18632635,-0.6178189499999989,9.8262633,8.999999999999999e-08,0.0,0.0,0.0,8.999999999999999e-08,0.0,0.0,0.0,8.999999999999999e-08
1737286264.3358023,20784,1737286260,241322240,base_link,0.006938474804446921,0.010049080195108352,-0.6809821490078493,-0.7321981878475745,1.0,0.0,0.0,0.0,1.0,0.0,0.0,0.0,1.0,0.08112241327762604,-0.23331817984580996,-0.22901798784732816,1.2184696791468346e-07,0.0,0.0,0.0,1.2184696791468346e-07,0.0,0.0,0.0,1.2184696791468346e-07,-0.1372931,-0.5687856999999988,9.8458766,8.999999999999999e-08,0.0,0.0,0.0,8.999999999999999e-08,0.0,0.0,0.0,8.999999999999999e-08
1737286264.3361847,20785,1737286260,341325056,base_link,0.007228276995491084,0.0074618094812077375,-0.6801267209553356,-0.7330209525337497,1.0,0.0,0.0,0.0,1.0,0.0,0.0,0.0,1.0,0.4390522241592407,-0.012633513659238822,-0.06126706674695015,1.2184696791468346e-07,0.0,0.0,0.0,1.2184696791468346e-07,0.0,0.0,0.0,1.2184696791468346e-07,-0.1176798,-0.32361944999999875,10.002783,8.999999999999999e-08,0.0,0.0,0.0,8.999999999999999e-08,0.0,0.0,0.0,8.999999999999999e-08
1737286264.3365264,20786,1737286260,441327872,base_link,0.010258130847642608,0.008792614963394622,-0.6797367509697624,-0.7333317189749051,1.0,0.0,0.0,0.0,1.0,0.0,0.0,0.0,1.0,0.1941262185573578,0.00662931241095067,0.07629130780696869,1.2184696791468346e-07,0.0,0.0,0.0,1.2184696791468346e-07,0.0,0.0,0.0,1.2184696791468346e-07,-0.08825985,-0.22555294999999878,10.0223963,8.999999999999999e-08,0.0,0.0,0.0,8.999999999999999e-08,0.0,0.0,0.0,8.999999999999999e-08
1737286264.338087,20787,1737286260,541330688,base_link,0.01323264876589776,0.008137321258939366,-0.6793329211747097,-0.733665770782311,1.0,0.0,0.0,0.0,1.0,0.0,0.0,0.0,1.0,0.03307217359542847,0.17488913238048556,0.19978362321853635,1.2184696791468346e-07,0.0,0.0,0.0,1.2184696791468346e-07,0.0,0.0,0.0,1.2184696791468346e-07,0.0,-0.4314925999999987,10.1400761,8.999999999999999e-08,0.0,0.0,0.0,8.999999999999999e-08,0.0,0.0,0.0,8.999999999999999e-08
1737286264.3407502,20788,1737286260,641333504,base_link,0.01641842348125017,0.004540670104501028,-0.6773530426421285,-0.7354608577680006,1.0,0.0,0.0,0.0,1.0,0.0,0.0,0.0,1.0,-0.3295675218105316,0.2071125954389572,-0.11805604398250583,1.2184696791468346e-07,0.0,0.0,0.0,1.2184696791468346e-07,0.0,0.0,0.0,1.2184696791468346e-07,-0.1176798,-0.44129924999999876,10.07142955,8.999999999999999e-08,0.0,0.0,0.0,8.999999999999999e-08,0.0,0.0,0.0,8.999999999999999e-08
1737286264.3415198,20789,1737286260,741336320,base_link,0.011844334982543859,0.007657345298738714,-0.6755911934698762,-0.7371415170086039,1.0,0.0,0.0,0.0,1.0,0.0,0.0,0.0,1.0,0.16429036855697632,-0.2566927671432495,-0.13912865519523618,1.2184696791468346e-07,0.0,0.0,0.0,1.2184696791468346e-07,0.0,0.0,0.0,1.2184696791468346e-07,-0.2157463,-0.5589790499999988,9.91452315,8.999999999999999e-08,0.0,0.0,0.0,8.999999999999999e-08,0.0,0.0,0.0,8.999999999999999e-08
1737286264.3439822,20790,1737286260,841339392,base_link,0.007728577419831092,0.01267128601231926,-0.675128298472547,-0.7375510071875864,1.0,0.0,0.0,0.0,1.0,0.0,0.0,0.0,1.0,0.4250379204750061,-0.20076881349086761,0.04596820473670962,1.2184696791468346e-07,0.0,0.0,0.0,1.2184696791468346e-07,0.0,0.0,0.0,1.2184696791468346e-07,-0.1765197,-0.3138127999999988,10.05181625,8.999999999999999e-08,0.0,0.0,0.0,8.999999999999999e-08,0.0,0.0,0.0,8.999999999999999e-08
1737286264.3440034,20791,1737286260,941342208,base_link,0.01335327938448379,0.017136788833216086,-0.6755310972859389,-0.7370113682961894,1.0,0.0,0.0,0.0,1.0,0.0,0.0,0.0,1.0,-0.19467857480049133,-0.018012216314673403,0.15770936012268066,1.2184696791468346e-07,0.0,0.0,0.0,1.2184696791468346e-07,0.0,0.0,0.0,1.2184696791468346e-07,0.0392266,-0.23535959999999878,10.07142955,8.999999999999999e-08,0.0,0.0,0.0,8.999999999999999e-08,0.0,0.0,0.0,8.999999999999999e-08
1737286264.3440623,20792,1737286261,41345024,base_link,0.0147189262876799,0.019172497376463808,-0.6762224124964922,-0.7363009013920271,1.0,0.0,0.0,0.0,1.0,0.0,0.0,0.0,1.0,-0.12154045701026917,0.09843088686466218,0.16253787279129028,1.2184696791468346e-07,0.0,0.0,0.0,1.2184696791468346e-07,0.0,0.0,0.0,1.2184696791468346e-07,-0.1372931,-0.3138127999999987,10.16949605,8.999999999999999e-08,0.0,0.0,0.0,8.999999999999999e-08,0.0,0.0,0.0,8.999999999999999e-08
1737286264.3441029,20793,1737286261,141348096,base_link,0.013487564127603739,0.01517424260557591,-0.6770201007878338,-0.7356844507698134,1.0,0.0,0.0,0.0,1.0,0.0,0.0,0.0,1.0,0.15155702829360962,0.14899241924285891,0.2770943343639374,1.2184696791468346e-07,0.0,0.0,0.0,1.2184696791468346e-07,0.0,0.0,0.0,1.2184696791468346e-07,-0.0784532,-0.5589790499999987,10.002783,8.999999999999999e-08,0.0,0.0,0.0,8.999999999999999e-08,0.0,0.0,0.0,8.999999999999999e-08
1737286264.3441522,20794,1737286261,241349632,base_link,0.016289480945934864,0.010845798211389713,-0.6762242230108088,-0.736435891089712,1.0,0.0,0.0,0.0,1.0,0.0,0.0,0.0,1.0,-0.42655128240585327,0.26086875796318054,-0.028837621212005646,1.2184696791468346e-07,0.0,0.0,0.0,1.2184696791468346e-07,0.0,0.0,0.0,1.2184696791468346e-07,-0.196133,-0.5295590999999987,9.9635564,8.999999999999999e-08,0.0,0.0,0.0,8.999999999999999e-08,0.0,0.0,0.0,8.999999999999999e-08
1737286264.3441744,20795,1737286261,341350912,base_link,0.01126420339668897,0.007016380639258854,-0.6736836408409517,-0.7389006971087809,1.0,0.0,0.0,0.0,1.0,0.0,0.0,0.0,1.0,0.370556116104126,-0.3028712868690491,-0.19131985306739804,1.2184696791468346e-07,0.0,0.0,0.0,1.2184696791468346e-07,0.0,0.0,0.0,1.2184696791468346e-07,-0.2745862,-0.5687856999999988,9.79684335,8.999999999999999e-08,0.0,0.0,0.0,8.999999999999999e-08,0.0,0.0,0.0,8.999999999999999e-08
1737286264.34422,20796,1737286261,441352704,base_link,0.005205572950610511,0.003632022181396569,-0.6717553531351059,-0.7407458781251901,1.0,0.0,0.0,0.0,1.0,0.0,0.0,0.0,1.0,0.3118097186088562,-0.1161121353507042,0.03514249995350839,1.2184696791468346e-07,0.0,0.0,0.0,1.2184696791468346e-07,0.0,0.0,0.0,1.2184696791468346e-07,-0.14709975,-0.3628460499999988,9.89490985,8.999999999999999e-08,0.0,0.0,0.0,8.999999999999999e-08,0.0,0.0,0.0,8.999999999999999e-08
1737286264.3442893,20797,1737286261,541353728,base_link,0.00582637502673556,0.004916049957363032,-0.6694053181689483,-0.7428582676486769,1.0,0.0,0.0,0.0,1.0,0.0,0.0,0.0,1.0,-0.363635390996933,0.2896203398704529,-0.09779382497072224,1.2184696791468346e-07,0.0,0.0,0.0,1.2184696791468346e-07,0.0,0.0,0.0,1.2184696791468346e-07,-0.1765197,-0.3530393999999987,10.0420096,8.999999999999999e-08,0.0,0.0,0.0,8.999999999999999e-08,0.0,0.0,0.0,8.999999999999999e-08
1737286264.3444583,20798,1737286261,641355008,base_link,0.004186583154337888,0.007847386110747078,-0.6664127287192014,-0.7455299900431563,1.0,0.0,0.0,0.0,1.0,0.0,0.0,0.0,1.0,0.2881457209587097,-0.3002139031887055,-0.2270555347204208,1.2184696791468346e-07,0.0,0.0,0.0,1.2184696791468346e-07,0.0,0.0,0.0,1.2184696791468346e-07,-0.0784532,-0.4805258499999988,9.9047165,8.999999999999999e-08,0.0,0.0,0.0,8.999999999999999e-08,0.0,0.0,0.0,8.999999999999999e-08
1737286264.344583,20799,1737286261,741356288,base_link,0.0032249342584618344,0.008464259553274178,-0.6666040186388901,-0.7453569872508916,1.0,0.0,0.0,0.0,1.0,0.0,0.0,0.0,1.0,0.0028956588357686996,-0.018155572935938804,0.24909652769565582,1.2184696791468346e-07,0.0,0.0,0.0,1.2184696791468346e-07,0.0,0.0,0.0,1.2184696791468346e-07,-0.0980665,-0.3530393999999987,10.0223963,8.999999999999999e-08,0.0,0.0,0.0,8.999999999999999e-08,0.0,0.0,0.0,8.999999999999999e-08
1737286264.3446262,20800,1737286261,841357824,base_link,0.009075736939276486,0.012269277398586088,-0.6662406963026408,-0.745580599547291,1.0,0.0,0.0,0.0,1.0,0.0,0.0,0.0,1.0,-0.09525609761476517,0.06157956644892691,-0.10429536551237108,1.2184696791468346e-07,0.0,0.0,0.0,1.2184696791468346e-07,0.0,0.0,0.0,1.2184696791468346e-07,-0.1372931,-0.5295590999999987,10.1204628,8.999999999999999e-08,0.0,0.0,0.0,8.999999999999999e-08,0.0,0.0,0.0,8.999999999999999e-08
1737286264.3446507,20801,1737286261,941360640,base_link,0.007897942991344999,0.013755968939894928,-0.6659284084081124,-0.7458470021995585,1.0,0.0,0.0,0.0,1.0,0.0,0.0,0.0,1.0,0.4021163284778595,-0.17332550883293152,0.016644911840558073,1.2184696791468346e-07,0.0,0.0,0.0,1.2184696791468346e-07,0.0,0.0,0.0,1.2184696791468346e-07,-0.2353596,-0.6668521999999988,10.0812362,8.999999999999999e-08,0.0,0.0,0.0,8.999999999999999e-08,0.0,0.0,0.0,8.999999999999999e-08
1737286264.3463795,20802,1737286262,41362176,base_link,0.011536169383318083,0.015556962697766581,-0.6683080750100546,-0.7436324458924144,1.0,0.0,0.0,0.0,1.0,0.0,0.0,0.0,1.0,-0.7561226487159729,0.33358556032180786,0.13151137530803678,1.2184696791468346e-07,0.0,0.0,0.0,1.2184696791468346e-07,0.0,0.0,0.0,1.2184696791468346e-07,-0.02941995,-0.3726526999999987,10.0616229,8.999999999999999e-08,0.0,0.0,0.0,8.999999999999999e-08,0.0,0.0,0.0,8.999999999999999e-08
1737286264.3464017,20803,1737286262,141364736,base_link,0.012021389905316404,0.016121740228070912,-0.6699169310942367,-0.7421636484698255,1.0,0.0,0.0,0.0,1.0,0.0,0.0,0.0,1.0,-0.08753693103790283,-0.0984642505645752,-0.04194118827581404,1.2184696791468346e-07,0.0,0.0,0.0,1.2184696791468346e-07,0.0,0.0,0.0,1.2184696791468346e-07,-0.1765197,-0.6178189499999989,9.9243298,8.999999999999999e-08,0.0,0.0,0.0,8.999999999999999e-08,0.0,0.0,0.0,8.999999999999999e-08
1737286264.346442,20804,1737286262,241366016,base_link,0.00861930150959166,0.015736603029235175,-0.6721982334120794,-0.7401537691346756,1.0,0.0,0.0,0.0,1.0,0.0,0.0,0.0,1.0,0.5894607901573181,-0.2762755751609802,0.059362355619668995,1.2184696791468346e-07,0.0,0.0,0.0,1.2184696791468346e-07,0.0,0.0,0.0,1.2184696791468346e-07,-0.22555295,-0.4511058999999987,10.1204628,8.999999999999999e-08,0.0,0.0,0.0,8.999999999999999e-08,0.0,0.0,0.0,8.999999999999999e-08
1737286264.34646,20805,1737286262,341368832,base_link,0.006310178226290255,0.01570752195087407,-0.6744640205702654,-0.7381136364822883,1.0,0.0,0.0,0.0,1.0,0.0,0.0,0.0,1.0,0.10932827740907669,-0.12425132095813748,0.2497655898332596,1.2184696791468346e-07,0.0,0.0,0.0,1.2184696791468346e-07,0.0,0.0,0.0,1.2184696791468346e-07,-0.0784532,-0.40207264999999875,10.05181625,8.999999999999999e-08,0.0,0.0,0.0,8.999999999999999e-08,0.0,0.0,0.0,8.999999999999999e-08
1737286264.3465295,20806,1737286262,441370368,base_link,0.011062842286253899,0.016799125023693344,-0.6766256552058734,-0.7360523932684481,1.0,0.0,0.0,0.0,1.0,0.0,0.0,0.0,1.0,-0.6462233662605286,0.39651480317115784,0.1850482672452926,1.2184696791468346e-07,0.0,0.0,0.0,1.2184696791468346e-07,0.0,0.0,0.0,1.2184696791468346e-07,-0.0588399,-0.2941994999999988,10.0223963,8.999999999999999e-08,0.0,0.0,0.0,8.999999999999999e-08,0.0,0.0,0.0,8.999999999999999e-08
1737286264.34657,20807,1737286262,541372928,base_link,0.013083991598648733,0.018525232687864164,-0.676953358345322,-0.7356764068139586,1.0,0.0,0.0,0.0,1.0,0.0,0.0,0.0,1.0,-0.29978373646736145,-0.021012187004089366,-0.08140509575605392,1.2184696791468346e-07,0.0,0.0,0.0,1.2184696791468346e-07,0.0,0.0,0.0,1.2184696791468346e-07,-0.0784532,-0.5589790499999988,9.8458766,8.999999999999999e-08,0.0,0.0,0.0,8.999999999999999e-08,0.0,0.0,0.0,8.999999999999999e-08
1737286264.3466206,20808,1737286262,641374464,base_link,0.012387423157345477,0.01763240512551925,-0.6758750099643474,-0.736701174793894,1.0,0.0,0.0,0.0,1.0,0.0,0.0,0.0,1.0,0.15163938701152802,0.05064406618475911,-0.23731982707977295,1.2184696791468346e-07,0.0,0.0,0.0,1.2184696791468346e-07,0.0,0.0,0.0,1.2184696791468346e-07,-0.14709975,-0.4903324999999987,10.03220295,8.999999999999999e-08,0.0,0.0,0.0,8.999999999999999e-08,0.0,0.0,0.0,8.999999999999999e-08
1737286264.3466618,20809,1737286262,741377024,base_link,0.011001119183252112,0.017111949310776725,-0.6738551501254342,-0.7385833691716391,1.0,0.0,0.0,0.0,1.0,0.0,0.0,0.0,1.0,0.2975568175315857,-0.2235558032989502,-0.106018953025341,1.2184696791468346e-07,0.0,0.0,0.0,1.2184696791468346e-07,0.0,0.0,0.0,1.2184696791468346e-07,-0.14709975,-0.44129924999999876,9.97336305,8.999999999999999e-08,0.0,0.0,0.0,8.999999999999999e-08,0.0,0.0,0.0,8.999999999999999e-08
1737286264.3466804,20810,1737286262,841378560,base_link,0.011005535941200913,0.017191848345715043,-0.6729614704795255,-0.7393958194222766,1.0,0.0,0.0,0.0,1.0,0.0,0.0,0.0,1.0,0.06480234861373901,-0.14751861989498136,0.21541067957878116,1.2184696791468346e-07,0.0,0.0,0.0,1.2184696791468346e-07,0.0,0.0,0.0,1.2184696791468346e-07,0.08825985,-0.3040061499999988,10.0420096,8.999999999999999e-08,0.0,0.0,0.0,8.999999999999999e-08,0.0,0.0,0.0,8.999999999999999e-08
1737286264.3481758,20811,1737286262,941379584,base_link,0.0159516968526737,0.01936388433015068,-0.6711944504875688,-0.7408566615654202,1.0,0.0,0.0,0.0,1.0,0.0,0.0,0.0,1.0,-0.8215716481208801,0.26532047986984253,0.043300691992044414,1.2184696791468346e-07,0.0,0.0,0.0,1.2184696791468346e-07,0.0,0.0,0.0,1.2184696791468346e-07,-0.1372931,-0.4314925999999987,10.13026945,8.999999999999999e-08,0.0,0.0,0.0,8.999999999999999e-08,0.0,0.0,0.0,8.999999999999999e-08
1737286264.3481958,20812,1737286263,41379584,base_link,0.017753892567089695,0.019382579280849938,-0.6690857136260482,-0.742720285666589,1.0,0.0,0.0,0.0,1.0,0.0,0.0,0.0,1.0,-0.42892155051231384,0.13671134412288666,-0.10618490725755693,1.2184696791468346e-07,0.0,0.0,0.0,1.2184696791468346e-07,0.0,0.0,0.0,1.2184696791468346e-07,-0.06864655,-0.4707191999999987,10.0812362,8.999999999999999e-08,0.0,0.0,0.0,8.999999999999999e-08,0.0,0.0,0.0,8.999999999999999e-08
1737286264.3482215,20813,1737286263,141382656,base_link,0.02414045266944742,0.006019209097192065,-0.6665268423739906,-0.7450657528444828,1.0,0.0,0.0,0.0,1.0,0.0,0.0,0.0,1.0,0.10968438535928726,0.37330272793769836,-0.21442200243473059,1.2184696791468346e-07,0.0,0.0,0.0,1.2184696791468346e-07,0.0,0.0,0.0,1.2184696791468346e-07,-0.0784532,-0.6374322499999987,10.002783,8.999999999999999e-08,0.0,0.0,0.0,8.999999999999999e-08,0.0,0.0,0.0,8.999999999999999e-08
1737286264.3483505,20814,1737286263,241384448,base_link,0.03450713919054325,-0.021478465831271137,-0.6645549448927824,-0.7461331369594637,1.0,0.0,0.0,0.0,1.0,0.0,0.0,0.0,1.0,0.7393921613693237,0.5317233800888062,-0.171976387500763,1.2184696791468346e-07,0.0,0.0,0.0,1.2184696791468346e-07,0.0,0.0,0.0,1.2184696791468346e-07,0.1569064,-0.5491723999999988,9.91452315,8.999999999999999e-08,0.0,0.0,0.0,8.999999999999999e-08,0.0,0.0,0.0,8.999999999999999e-08
1737286264.3483894,20815,1737286263,341385984,base_link,0.049619279080878195,-0.05318604943964163,-0.66272476953415,-0.7453221123342614,1.0,0.0,0.0,0.0,1.0,0.0,0.0,0.0,1.0,0.20162822306156158,0.6628289818763733,0.1674361824989318,1.2184696791468346e-07,0.0,0.0,0.0,1.2184696791468346e-07,0.0,0.0,0.0,1.2184696791468346e-07,0.0392266,-0.35303939999999884,9.9243298,8.999999999999999e-08,0.0,0.0,0.0,8.999999999999999e-08,0.0,0.0,0.0,8.999999999999999e-08
1737286264.348425,20816,1737286263,441387776,base_link,0.06640820402600801,-0.0805407668412508,-0.655577057240641,-0.7478782369706748,1.0,0.0,0.0,0.0,1.0,0.0,0.0,0.0,1.0,-0.27043089270591736,0.7326303124427795,-0.07220765203237542,1.2184696791468346e-07,0.0,0.0,0.0,1.2184696791468346e-07,0.0,0.0,0.0,1.2184696791468346e-07,-0.10787315,-0.3138127999999987,10.1596894,8.999999999999999e-08,0.0,0.0,0.0,8.999999999999999e-08,0.0,0.0,0.0,8.999999999999999e-08
1737286264.3489997,20817,1737286263,541389568,base_link,0.08463908291593338,-0.09976606769845166,-0.6390700986919977,-0.7579395532210585,1.0,0.0,0.0,0.0,1.0,0.0,0.0,0.0,1.0,0.051520414650440216,0.3817520439624786,-0.5011181831359863,1.2184696791468346e-07,0.0,0.0,0.0,1.2184696791468346e-07,0.0,0.0,0.0,1.2184696791468346e-07,-0.2353596,-0.40207264999999875,10.24794925,8.999999999999999e-08,0.0,0.0,0.0,8.999999999999999e-08,0.0,0.0,0.0,8.999999999999999e-08
1737286264.349783,20818,1737286263,641391104,base_link,0.09712654165399279,-0.10873922044997629,-0.6140293184490994,-0.7756998214046469,1.0,0.0,0.0,0.0,1.0,0.0,0.0,0.0,1.0,0.16143101453781128,0.19754719734191886,-0.7315527200698853,1.2184696791468346e-07,0.0,0.0,0.0,1.2184696791468346e-07,0.0,0.0,0.0,1.2184696791468346e-07,-0.3334261,-0.40207264999999875,10.38524235,8.999999999999999e-08,0.0,0.0,0.0,8.999999999999999e-08,0.0,0.0,0.0,8.999999999999999e-08
1737286264.3500118,20819,1737286263,741392640,base_link,0.10312068648601613,-0.10365805561126658,-0.5876065358840995,-0.7958264198377889,1.0,0.0,0.0,0.0,1.0,0.0,0.0,0.0,1.0,-0.08745618909597397,-0.08397712558507926,-0.6053422689437866,1.2184696791468346e-07,0.0,0.0,0.0,1.2184696791468346e-07,0.0,0.0,0.0,1.2184696791468346e-07,-0.4118793,-0.34323274999999875,10.52253545,8.999999999999999e-08,0.0,0.0,0.0,8.999999999999999e-08,0.0,0.0,0.0,8.999999999999999e-08
1737286264.3522954,20820,1737286263,841394432,base_link,0.09588763414220709,-0.09983635905309066,-0.5617120202262162,-0.8156701964415612,1.0,0.0,0.0,0.0,1.0,0.0,0.0,0.0,1.0,0.019546158611774445,-0.2534244656562806,-0.3849720656871795,1.2184696791468346e-07,0.0,0.0,0.0,1.2184696791468346e-07,0.0,0.0,0.0,1.2184696791468346e-07,-0.20593965,-0.5099457999999988,10.40485565,8.999999999999999e-08,0.0,0.0,0.0,8.999999999999999e-08,0.0,0.0,0.0,8.999999999999999e-08
1737286264.352338,20821,1737286263,941396224,base_link,0.09505971918169691,-0.0956333183368096,-0.5407092869975814,-0.8303320933021645,1.0,0.0,0.0,0.0,1.0,0.0,0.0,0.0,1.0,0.0508071631193161,-0.022243108600378064,-0.21657449007034302,1.2184696791468346e-07,0.0,0.0,0.0,1.2184696791468346e-07,0.0,0.0,0.0,1.2184696791468346e-07,-0.3530394,-0.5001391499999988,10.38524235,8.999999999999999e-08,0.0,0.0,0.0,8.999999999999999e-08,0.0,0.0,0.0,8.999999999999999e-08
1737286264.3523977,20822,1737286264,41398016,base_link,0.09343723370493384,-0.08788471930379178,-0.5242958393142542,-0.8418192397113677,1.0,0.0,0.0,0.0,1.0,0.0,0.0,0.0,1.0,-0.1945553570985794,-0.22078904509544378,-0.5508365631103516,1.2184696791468346e-07,0.0,0.0,0.0,1.2184696791468346e-07,0.0,0.0,0.0,1.2184696791468346e-07,-0.32361945000000003,-0.6374322499999987,10.38524235,8.999999999999999e-08,0.0,0.0,0.0,8.999999999999999e-08,0.0,0.0,0.0,8.999999999999999e-08
1737286264.3524442,20823,1737286264,141399808,base_link,0.08387426279480242,-0.07298806940239012,-0.518361530472056,-0.8479028089894547,1.0,0.0,0.0,0.0,1.0,0.0,0.0,0.0,1.0,-0.5315956473350525,-0.2741834819316864,0.1224373131990433,1.2184696791468346e-07,0.0,0.0,0.0,1.2184696791468346e-07,0.0,0.0,0.0,1.2184696791468346e-07,-0.55897905,-0.6178189499999988,10.198916,8.999999999999999e-08,0.0,0.0,0.0,8.999999999999999e-08,0.0,0.0,0.0,8.999999999999999e-08
1737286264.3525097,20824,1737286264,241401600,base_link,0.07890596513473072,-0.052334240806278194,-0.5177410324755368,-0.850281835156175,1.0,0.0,0.0,0.0,1.0,0.0,0.0,0.0,1.0,0.09330172836780548,-0.4378695487976074,-0.016806179657578416,1.2184696791468346e-07,0.0,0.0,0.0,1.2184696791468346e-07,0.0,0.0,0.0,1.2184696791468346e-07,-0.4118793,-0.4903324999999987,10.16949605,8.999999999999999e-08,0.0,0.0,0.0,8.999999999999999e-08,0.0,0.0,0.0,8.999999999999999e-08
1737286264.3529422,20825,1737286264,341403392,base_link,0.07513443770881327,-0.031740630460477294,-0.5252137172818447,-0.8470524776111208,1.0,0.0,0.0,0.0,1.0,0.0,0.0,0.0,1.0,-0.9062591791152954,-0.16536349058151242,0.14868518710136416,1.2184696791468346e-07,0.0,0.0,0.0,1.2184696791468346e-07,0.0,0.0,0.0,1.2184696791468346e-07,-0.2941995,-0.40207264999999875,10.14988275,8.999999999999999e-08,0.0,0.0,0.0,8.999999999999999e-08,0.0,0.0,0.0,8.999999999999999e-08
1737286264.4450846,20826,1737286264,441405184,base_link,0.06387481319316025,-0.018563094163047807,-0.5330493353415331,-0.8434653673190043,1.0,0.0,0.0,0.0,1.0,0.0,0.0,0.0,1.0,-0.019389763474464417,-0.30868884921073914,-0.023823495954275093,1.2184696791468346e-07,0.0,0.0,0.0,1.2184696791468346e-07,0.0,0.0,0.0,1.2184696791468346e-07,-0.48052585000000003,-0.7354987499999988,10.14988275,8.999999999999999e-08,0.0,0.0,0.0,8.999999999999999e-08,0.0,0.0,0.0,8.999999999999999e-08
1737286264.5456305,20827,1737286264,541406720,base_link,0.04892491269978162,-0.012966387849734752,-0.5423180387034876,-0.8386473457897853,1.0,0.0,0.0,0.0,1.0,0.0,0.0,0.0,1.0,0.044036366045475006,-0.01933054625988004,0.1988147795200348,1.2184696791468346e-07,0.0,0.0,0.0,1.2184696791468346e-07,0.0,0.0,0.0,1.2184696791468346e-07,-0.4707192,-0.7158854499999987,10.267562550000001,8.999999999999999e-08,0.0,0.0,0.0,8.999999999999999e-08,0.0,0.0,0.0,8.999999999999999e-08
1737286264.6430516,20828,1737286264,641408512,base_link,0.03402894296461242,-0.018165546834771857,-0.5512387431393081,-0.8334553929341995,1.0,0.0,0.0,0.0,1.0,0.0,0.0,0.0,1.0,-0.014280809089541435,0.030267786234617265,0.26218536496162415,1.2184696791468346e-07,0.0,0.0,0.0,1.2184696791468346e-07,0.0,0.0,0.0,1.2184696791468346e-07,-0.2941995,-0.6080122999999987,10.355822400000001,8.999999999999999e-08,0.0,0.0,0.0,8.999999999999999e-08,0.0,0.0,0.0,8.999999999999999e-08
1737286264.7428596,20829,1737286264,741410304,base_link,0.029007959476261027,-0.024667103925090222,-0.5584529333205867,-0.8286618089043349,1.0,0.0,0.0,0.0,1.0,0.0,0.0,0.0,1.0,-0.3936058580875397,0.23416128754615786,0.21098425984382627,1.2184696791468346e-07,0.0,0.0,0.0,1.2184696791468346e-07,0.0,0.0,0.0,1.2184696791468346e-07,-0.55897905,-0.5393657499999988,10.2773692,8.999999999999999e-08,0.0,0.0,0.0,8.999999999999999e-08,0.0,0.0,0.0,8.999999999999999e-08
1737286264.8427453,20830,1737286264,841412352,base_link,0.026879532377389923,-0.028231624233921306,-0.5642956021491322,-0.8246520111704305,1.0,0.0,0.0,0.0,1.0,0.0,0.0,0.0,1.0,-0.3792434334754944,0.20508888363838199,0.2978321313858032,1.2184696791468346e-07,0.0,0.0,0.0,1.2184696791468346e-07,0.0,0.0,0.0,1.2184696791468346e-07,-0.67665885,-0.4903324999999987,10.179302700000001,8.999999999999999e-08,0.0,0.0,0.0,8.999999999999999e-08,0.0,0.0,0.0,8.999999999999999e-08
1737286264.9423022,20831,1737286264,941415424,base_link,0.029100678737232096,-0.02837883252780246,-0.5684266268355183,-0.8217292511927428,1.0,0.0,0.0,0.0,1.0,0.0,0.0,0.0,1.0,-0.07367981970310211,0.09007214754819873,0.1942577213048935,1.2184696791468346e-07,0.0,0.0,0.0,1.2184696791468346e-07,0.0,0.0,0.0,1.2184696791468346e-07,-0.61781895,-0.4903324999999987,10.1204628,8.999999999999999e-08,0.0,0.0,0.0,8.999999999999999e-08,0.0,0.0,0.0,8.999999999999999e-08
1737286265.0452864,20832,1737286265,41417216,base_link,0.033207305056610445,-0.035730404502478705,-0.5708375994280475,-0.8196127428024716,1.0,0.0,0.0,0.0,1.0,0.0,0.0,0.0,1.0,0.24751199781894684,0.15963049232959747,0.061406951397657374,1.2184696791468346e-07,0.0,0.0,0.0,1.2184696791468346e-07,0.0,0.0,0.0,1.2184696791468346e-07,-0.46091255,-0.5982056499999987,10.07142955,8.999999999999999e-08,0.0,0.0,0.0,8.999999999999999e-08,0.0,0.0,0.0,8.999999999999999e-08
1737286265.1456885,20833,1737286265,141419008,base_link,0.03158678306306514,-0.03921346381483594,-0.5715319795450751,-0.819033439945316,1.0,0.0,0.0,0.0,1.0,0.0,0.0,0.0,1.0,0.3918101489543915,-0.4013242721557617,0.11745996028184896,1.2184696791468346e-07,0.0,0.0,0.0,1.2184696791468346e-07,0.0,0.0,0.0,1.2184696791468346e-07,-0.48052585000000003,-0.5001391499999989,9.85568325,8.999999999999999e-08,0.0,0.0,0.0,8.999999999999999e-08,0.0,0.0,0.0,8.999999999999999e-08
1737286265.243123,20834,1737286265,241421056,base_link,0.028270700530926878,-0.03130167665958508,-0.5718274537734989,-0.8192889207359676,1.0,0.0,0.0,0.0,1.0,0.0,0.0,0.0,1.0,0.1710139662027359,-0.1312305927276611,0.14982943236827853,1.2184696791468346e-07,0.0,0.0,0.0,1.2184696791468346e-07,0.0,0.0,0.0,1.2184696791468346e-07,-0.8041453000000001,-0.6080122999999988,9.8851032,8.999999999999999e-08,0.0,0.0,0.0,8.999999999999999e-08,0.0,0.0,0.0,8.999999999999999e-08
1737286265.3429306,20835,1737286265,341423360,base_link,0.03685714590589998,-0.019034297705505278,-0.5708962543494842,-0.8199736051094929,1.0,0.0,0.0,0.0,1.0,0.0,0.0,0.0,1.0,-0.0510251522064209,-0.18928794562816623,-0.1994197219610214,1.2184696791468346e-07,0.0,0.0,0.0,1.2184696791468346e-07,0.0,0.0,0.0,1.2184696791468346e-07,-0.4903325,-0.16671304999999875,10.3362091,8.999999999999999e-08,0.0,0.0,0.0,8.999999999999999e-08,0.0,0.0,0.0,8.999999999999999e-08
1737286265.4429865,20836,1737286265,441425664,base_link,0.04429068687380395,-0.015444048530209316,-0.5695664436076615,-0.820605802281073,1.0,0.0,0.0,0.0,1.0,0.0,0.0,0.0,1.0,-0.19277778267860413,0.13996849954128265,0.024319503456354124,1.2184696791468346e-07,0.0,0.0,0.0,1.2184696791468346e-07,0.0,0.0,0.0,1.2184696791468346e-07,-0.51975245,-0.42168594999999875,10.30678915,8.999999999999999e-08,0.0,0.0,0.0,8.999999999999999e-08,0.0,0.0,0.0,8.999999999999999e-08
1737286265.5428102,20837,1737286265,541427456,base_link,0.04485128013711343,-0.019376373966533494,-0.5656455967792653,-0.8231998406500088,1.0,0.0,0.0,0.0,1.0,0.0,0.0,0.0,1.0,0.1783008724451065,0.10721601545810698,-0.05949564278125764,1.2184696791468346e-07,0.0,0.0,0.0,1.2184696791468346e-07,0.0,0.0,0.0,1.2184696791468346e-07,-0.6864655,-0.6374322499999987,10.1596894,8.999999999999999e-08,0.0,0.0,0.0,8.999999999999999e-08,0.0,0.0,0.0,8.999999999999999e-08
1737286265.6427782,20838,1737286265,641429504,base_link,0.045562506672830946,-0.01985214796651142,-0.5631362751598571,-0.8248681626817014,1.0,0.0,0.0,0.0,1.0,0.0,0.0,0.0,1.0,0.012795424088835716,-0.13586172461509705,-0.10608062148094176,1.2184696791468346e-07,0.0,0.0,0.0,1.2184696791468346e-07,0.0,0.0,0.0,1.2184696791468346e-07,-0.6472389000000001,-0.3334260999999987,10.2773692,8.999999999999999e-08,0.0,0.0,0.0,8.999999999999999e-08,0.0,0.0,0.0,8.999999999999999e-08
1737286265.742781,20839,1737286265,741431552,base_link,0.04220067476747371,-0.02186480654900419,-0.560681299334389,-0.8266665070392328,1.0,0.0,0.0,0.0,1.0,0.0,0.0,0.0,1.0,-0.2184167355298996,0.03225231170654296,-0.0339801236987114,1.2184696791468346e-07,0.0,0.0,0.0,1.2184696791468346e-07,0.0,0.0,0.0,1.2184696791468346e-07,-0.69627215,-0.40207264999999875,10.16949605,8.999999999999999e-08,0.0,0.0,0.0,8.999999999999999e-08,0.0,0.0,0.0,8.999999999999999e-08
1737286265.8443196,20840,1737286265,841434112,base_link,0.03951387841855286,-0.019794239972380428,-0.5584499115775791,-0.828360149774984,1.0,0.0,0.0,0.0,1.0,0.0,0.0,0.0,1.0,-0.3669266998767853,0.03529129922389985,0.03728079050779342,1.2184696791468346e-07,0.0,0.0,0.0,1.2184696791468346e-07,0.0,0.0,0.0,1.2184696791468346e-07,-0.77472535,-0.42168594999999875,10.16949605,8.999999999999999e-08,0.0,0.0,0.0,8.999999999999999e-08,0.0,0.0,0.0,8.999999999999999e-08
1737286265.9440038,20841,1737286265,941436160,base_link,0.040089897047986184,-0.018279926969996918,-0.5575189760524581,-0.8289941108150721,1.0,0.0,0.0,0.0,1.0,0.0,0.0,0.0,1.0,-0.44682082533836365,0.06288038939237596,0.08841147273778914,1.2184696791468346e-07,0.0,0.0,0.0,1.2184696791468346e-07,0.0,0.0,0.0,1.2184696791468346e-07,-0.784532,-0.6374322499999987,10.1204628,8.999999999999999e-08,0.0,0.0,0.0,8.999999999999999e-08,0.0,0.0,0.0,8.999999999999999e-08
1737286266.043646,20842,1737286266,41438464,base_link,0.04213524561203179,-0.016439426945449816,-0.5575968219692239,-0.8288788514908199,1.0,0.0,0.0,0.0,1.0,0.0,0.0,0.0,1.0,-0.15773963928222656,0.07266660034656526,0.06483630836009978,1.2184696791468346e-07,0.0,0.0,0.0,1.2184696791468346e-07,0.0,0.0,0.0,1.2184696791468346e-07,-0.67665885,-0.38245934999999875,10.1596894,8.999999999999999e-08,0.0,0.0,0.0,8.999999999999999e-08,0.0,0.0,0.0,8.999999999999999e-08
1737286266.1449752,20843,1737286266,141440256,base_link,0.04197662926426793,-0.012529517912479337,-0.5585633992414986,-0.8283042332405848,1.0,0.0,0.0,0.0,1.0,0.0,0.0,0.0,1.0,0.3455823063850403,-0.28049883246421814,0.017906280234456097,1.2184696791468346e-07,0.0,0.0,0.0,1.2184696791468346e-07,0.0,0.0,0.0,1.2184696791468346e-07,-0.57859235,-0.5687856999999987,10.28717585,8.999999999999999e-08,0.0,0.0,0.0,8.999999999999999e-08,0.0,0.0,0.0,8.999999999999999e-08
1737286266.242118,20844,1737286266,241442560,base_link,0.03755211080420231,-0.0021705316162332696,-0.5607224979476463,-0.8271489636468172,1.0,0.0,0.0,0.0,1.0,0.0,0.0,0.0,1.0,0.3264179229736328,-0.1817866414785385,0.08034376055002215,1.2184696791468346e-07,0.0,0.0,0.0,1.2184696791468346e-07,0.0,0.0,0.0,1.2184696791468346e-07,-0.75511205,-0.3334260999999987,10.355822400000001,8.999999999999999e-08,0.0,0.0,0.0,8.999999999999999e-08,0.0,0.0,0.0,8.999999999999999e-08
1737286266.3443158,20845,1737286266,341444352,base_link,0.03243154395335661,0.010203345421709246,-0.5641907477808238,-0.824944171939848,1.0,0.0,0.0,0.0,1.0,0.0,0.0,0.0,1.0,0.31944650411605835,-0.22757115960121155,0.028747327625751523,1.2184696791468346e-07,0.0,0.0,0.0,1.2184696791468346e-07,0.0,0.0,0.0,1.2184696791468346e-07,-0.6864655,-0.4314925999999987,10.24794925,8.999999999999999e-08,0.0,0.0,0.0,8.999999999999999e-08,0.0,0.0,0.0,8.999999999999999e-08
1737286266.4421937,20846,1737286266,441446400,base_link,0.025193000351746958,0.021866464884893223,-0.5687145514877744,-0.8218582173177891,1.0,0.0,0.0,0.0,1.0,0.0,0.0,0.0,1.0,0.21047820150852203,-0.4378620982170105,0.014484629034996086,1.2184696791468346e-07,0.0,0.0,0.0,1.2184696791468346e-07,0.0,0.0,0.0,1.2184696791468346e-07,-0.63743225,-0.3334260999999987,10.34601575,8.999999999999999e-08,0.0,0.0,0.0,8.999999999999999e-08,0.0,0.0,0.0,8.999999999999999e-08
1737286266.543006,20847,1737286266,541448192,base_link,0.01755468761298929,0.03362637596603266,-0.5749786240768373,-0.8172886158737979,1.0,0.0,0.0,0.0,1.0,0.0,0.0,0.0,1.0,-0.16887342929840088,-0.40106046199798584,0.09654940664768225,1.2184696791468346e-07,0.0,0.0,0.0,1.2184696791468346e-07,0.0,0.0,0.0,1.2184696791468346e-07,-0.6668522,-0.36284604999999875,10.4146623,8.999999999999999e-08,0.0,0.0,0.0,8.999999999999999e-08,0.0,0.0,0.0,8.999999999999999e-08
1737286266.642029,20848,1737286266,641450496,base_link,0.01608412726066847,0.04715427739996448,-0.5479806748991636,-0.8350059610027986,1.0,0.0,0.0,0.0,1.0,0.0,0.0,0.0,1.0,-0.43972697854042053,-0.325955182313919,0.3039547502994538,1.2184696791468346e-07,0.0,0.0,0.0,1.2184696791468346e-07,0.0,0.0,0.0,1.2184696791468346e-07,-0.65704555,-0.42168594999999875,10.3362091,8.999999999999999e-08,0.0,0.0,0.0,8.999999999999999e-08,0.0,0.0,0.0,8.999999999999999e-08
1737286266.7430649,20849,1737286266,741452544,base_link,0.01091221509598741,0.05735391048781043,-0.5746807113048275,-0.816292553296692,1.0,0.0,0.0,0.0,1.0,0.0,0.0,0.0,1.0,-0.5453400015830994,-0.25316265225410456,0.4619924724102021,1.2184696791468346e-07,0.0,0.0,0.0,1.2184696791468346e-07,0.0,0.0,0.0,1.2184696791468346e-07,-0.6472389000000001,-0.6374322499999987,10.44408225,8.999999999999999e-08,0.0,0.0,0.0,8.999999999999999e-08,0.0,0.0,0.0,8.999999999999999e-08
1737286266.8421123,20850,1737286266,841454848,base_link,0.010542204422422445,0.06030316716318531,-0.6068074645157033,-0.7924879121879579,1.0,0.0,0.0,0.0,1.0,0.0,0.0,0.0,1.0,-0.7353108525276184,0.060917370021343294,0.527294397354126,1.2184696791468346e-07,0.0,0.0,0.0,1.2184696791468346e-07,0.0,0.0,0.0,1.2184696791468346e-07,-0.67665885,-0.5687856999999987,10.58137535,8.999999999999999e-08,0.0,0.0,0.0,8.999999999999999e-08,0.0,0.0,0.0,8.999999999999999e-08
1737286266.9421937,20851,1737286266,941457152,base_link,0.014387482971268118,0.06505129858488744,-0.6266421313301225,-0.7764540991766433,1.0,0.0,0.0,0.0,1.0,0.0,0.0,0.0,1.0,-0.5708000063896179,0.14255262911319735,0.32489848136901855,1.2184696791468346e-07,0.0,0.0,0.0,1.2184696791468346e-07,0.0,0.0,0.0,1.2184696791468346e-07,-0.6668522,-0.5687856999999987,10.4146623,8.999999999999999e-08,0.0,0.0,0.0,8.999999999999999e-08,0.0,0.0,0.0,8.999999999999999e-08
1737286267.0419757,20852,1737286267,41459968,base_link,0.018731553162743032,0.07458865085316274,-0.6382794804900409,-0.7659536323207689,1.0,0.0,0.0,0.0,1.0,0.0,0.0,0.0,1.0,-0.24674217402935028,-0.1106140315532684,0.2707563638687134,1.2184696791468346e-07,0.0,0.0,0.0,1.2184696791468346e-07,0.0,0.0,0.0,1.2184696791468346e-07,-0.51975245,-0.5099457999999988,10.32640245,8.999999999999999e-08,0.0,0.0,0.0,8.999999999999999e-08,0.0,0.0,0.0,8.999999999999999e-08
1737286267.1877952,20853,1737286267,142462016,base_link,0.02483872387820482,0.08462082762729661,-0.6490071396300761,-0.7556534166117167,1.0,0.0,0.0,0.0,1.0,0.0,0.0,0.0,1.0,-0.1559775173664093,-0.2256178259849548,0.31816136837005615,1.2184696791468346e-07,0.0,0.0,0.0,1.2184696791468346e-07,0.0,0.0,0.0,1.2184696791468346e-07,-0.5099458,-0.5393657499999988,10.2185293,8.999999999999999e-08,0.0,0.0,0.0,8.999999999999999e-08,0.0,0.0,0.0,8.999999999999999e-08
1737286267.2420874,20854,1737286267,241464320,base_link,0.02900012465884513,0.08928898820049908,-0.6634783405362643,-0.7422822650415052,1.0,0.0,0.0,0.0,1.0,0.0,0.0,0.0,1.0,0.17482663691043854,-0.21920408308506006,0.37052813172340393,1.2184696791468346e-07,0.0,0.0,0.0,1.2184696791468346e-07,0.0,0.0,0.0,1.2184696791468346e-07,-0.4511059,-0.44129924999999876,10.2185293,8.999999999999999e-08,0.0,0.0,0.0,8.999999999999999e-08,0.0,0.0,0.0,8.999999999999999e-08
1737286267.3418558,20855,1737286267,341466624,base_link,0.027107162940890526,0.09200751290738646,-0.6865283973773436,-0.7207486239184848,1.0,0.0,0.0,0.0,1.0,0.0,0.0,0.0,1.0,0.2982632517814636,-0.2575908601284026,0.7099910378456116,1.2184696791468346e-07,0.0,0.0,0.0,1.2184696791468346e-07,0.0,0.0,0.0,1.2184696791468346e-07,-0.4707192,-0.4118792999999987,10.2185293,8.999999999999999e-08,0.0,0.0,0.0,8.999999999999999e-08,0.0,0.0,0.0,8.999999999999999e-08
1737286267.4446177,20856,1737286267,441468928,base_link,0.025651456779076376,0.09626214498681873,-0.7159115966320413,-0.6910471677211399,1.0,0.0,0.0,0.0,1.0,0.0,0.0,0.0,1.0,-0.30133122205734253,0.24918487668037426,0.9486076235771179,1.2184696791468346e-07,0.0,0.0,0.0,1.2184696791468346e-07,0.0,0.0,0.0,1.2184696791468346e-07,-0.4511059,-0.2941994999999987,10.2773692,8.999999999999999e-08,0.0,0.0,0.0,8.999999999999999e-08,0.0,0.0,0.0,8.999999999999999e-08
1737286267.5423746,20857,1737286267,541470976,base_link,0.018867140846884605,0.09559066738836679,-0.7405233744272579,-0.6649297611262243,1.0,0.0,0.0,0.0,1.0,0.0,0.0,0.0,1.0,0.4430363178253174,-0.3355154395103454,0.6766246557235718,1.2184696791468346e-07,0.0,0.0,0.0,1.2184696791468346e-07,0.0,0.0,0.0,1.2184696791468346e-07,-0.3334261,-0.7060787999999988,9.99297635,8.999999999999999e-08,0.0,0.0,0.0,8.999999999999999e-08,0.0,0.0,0.0,8.999999999999999e-08
1737286267.6424258,20858,1737286267,641473280,base_link,0.016289667593121435,0.09611724431233439,-0.7661287245526368,-0.635250265242651,1.0,0.0,0.0,0.0,1.0,0.0,0.0,0.0,1.0,-0.2111358493566513,-0.05647737905383096,1.141496181488037,1.2184696791468346e-07,0.0,0.0,0.0,1.2184696791468346e-07,0.0,0.0,0.0,1.2184696791468346e-07,-0.28439285000000003,-0.14709974999999875,10.1008495,8.999999999999999e-08,0.0,0.0,0.0,8.999999999999999e-08,0.0,0.0,0.0,8.999999999999999e-08
1737286267.7466,20859,1737286267,741475584,base_link,0.012991771779224151,0.09358686324136722,-0.7978744451804198,-0.5953730617207292,1.0,0.0,0.0,0.0,1.0,0.0,0.0,0.0,1.0,0.015362509526312351,-0.14317582547664628,1.1926970481872559,1.2184696791468346e-07,0.0,0.0,0.0,1.2184696791468346e-07,0.0,0.0,0.0,1.2184696791468346e-07,-0.392266,-0.6374322499999987,10.0223963,8.999999999999999e-08,0.0,0.0,0.0,8.999999999999999e-08,0.0,0.0,0.0,8.999999999999999e-08
1737286267.8423147,20860,1737286267,841478144,base_link,0.019128048197368023,0.09316789357303765,-0.8335016665034778,-0.5442690817190036,1.0,0.0,0.0,0.0,1.0,0.0,0.0,0.0,1.0,0.20219847559928894,-0.06216318160295476,0.8497001528739929,1.2184696791468346e-07,0.0,0.0,0.0,1.2184696791468346e-07,0.0,0.0,0.0,1.2184696791468346e-07,-0.2941995,-0.20593964999999878,10.01258965,8.999999999999999e-08,0.0,0.0,0.0,8.999999999999999e-08,0.0,0.0,0.0,8.999999999999999e-08
1737286267.9433272,20861,1737286267,941479936,base_link,0.028133304946971006,0.09104153910317758,-0.8699067300971592,-0.4839237917711353,1.0,0.0,0.0,0.0,1.0,0.0,0.0,0.0,1.0,-0.2913202941417694,0.32345089316368125,1.600669264793396,1.2184696791468346e-07,0.0,0.0,0.0,1.2184696791468346e-07,0.0,0.0,0.0,1.2184696791468346e-07,-0.1765197,-0.10787314999999875,10.179302700000001,8.999999999999999e-08,0.0,0.0,0.0,8.999999999999999e-08,0.0,0.0,0.0,8.999999999999999e-08
1737286268.0459914,20862,1737286268,41482496,base_link,0.03362777876742202,0.08955516081667036,-0.8997414955911106,-0.425810153446041,1.0,0.0,0.0,0.0,1.0,0.0,0.0,0.0,1.0,-0.018456820398569107,-0.2357320338487624,0.9548017382621765,1.2184696791468346e-07,0.0,0.0,0.0,1.2184696791468346e-07,0.0,0.0,0.0,1.2184696791468346e-07,-0.36284605000000003,-0.46091254999999876,10.24794925,8.999999999999999e-08,0.0,0.0,0.0,8.999999999999999e-08,0.0,0.0,0.0,8.999999999999999e-08
1737286268.1423676,20863,1737286268,141478656,base_link,0.029511885217255764,0.08385944260721734,-0.9282666669820985,-0.36113382213035106,1.0,0.0,0.0,0.0,1.0,0.0,0.0,0.0,1.0,0.22108496725559235,-0.19362528622150404,1.339756965637207,1.2184696791468346e-07,0.0,0.0,0.0,1.2184696791468346e-07,0.0,0.0,0.0,1.2184696791468346e-07,-0.38245935,-0.3040061499999988,10.0223963,8.999999999999999e-08,0.0,0.0,0.0,8.999999999999999e-08,0.0,0.0,0.0,8.999999999999999e-08
1737286268.2423685,20864,1737286268,241481216,base_link,0.0277220035702993,0.08097397339556421,-0.951547755922064,-0.2953499184869818,1.0,0.0,0.0,0.0,1.0,0.0,0.0,0.0,1.0,-0.48648378252983093,0.08501829952001586,1.1766425371170044,1.2184696791468346e-07,0.0,0.0,0.0,1.2184696791468346e-07,0.0,0.0,0.0,1.2184696791468346e-07,-0.24516625,-0.23535959999999878,9.95374975,8.999999999999999e-08,0.0,0.0,0.0,8.999999999999999e-08,0.0,0.0,0.0,8.999999999999999e-08
1737286268.3418818,20865,1737286268,341483520,base_link,0.026723748101959335,0.07383895712864912,-0.9665493617211872,-0.24416384059459367,1.0,0.0,0.0,0.0,1.0,0.0,0.0,0.0,1.0,-0.11718001216650009,-0.10169768333435046,1.0098750591278076,1.2184696791468346e-07,0.0,0.0,0.0,1.2184696791468346e-07,0.0,0.0,0.0,1.2184696791468346e-07,-0.26477955,-0.5295590999999988,9.71839015,8.999999999999999e-08,0.0,0.0,0.0,8.999999999999999e-08,0.0,0.0,0.0,8.999999999999999e-08
1737286268.4515145,20866,1737286268,441486336,base_link,0.027939516851060005,0.07303472109798415,-0.9761189809130337,-0.20267473452201584,1.0,0.0,0.0,0.0,1.0,0.0,0.0,0.0,1.0,0.4380341172218323,-0.34429094195365895,1.042616605758667,1.2184696791468346e-07,0.0,0.0,0.0,1.2184696791468346e-07,0.0,0.0,0.0,1.2184696791468346e-07,-0.30400615,-0.11767979999999878,9.9047165,8.999999999999999e-08,0.0,0.0,0.0,8.999999999999999e-08,0.0,0.0,0.0,8.999999999999999e-08
1737286268.5436342,20867,1737286268,541488896,base_link,0.017720531613113048,0.06893334173935535,-0.9848332711612549,-0.1582327563111256,1.0,0.0,0.0,0.0,1.0,0.0,0.0,0.0,1.0,0.4639986455440521,-0.5400900840759276,0.8274628520011903,1.2184696791468346e-07,0.0,0.0,0.0,1.2184696791468346e-07,0.0,0.0,0.0,1.2184696791468346e-07,-0.42168595,-0.3530393999999987,10.0812362,8.999999999999999e-08,0.0,0.0,0.0,8.999999999999999e-08,0.0,0.0,0.0,8.999999999999999e-08
1737286268.643778,20868,1737286268,641488640,base_link,0.007874329791880744,0.06344136713327429,-0.9921040649796764,-0.10790139997883175,1.0,0.0,0.0,0.0,1.0,0.0,0.0,0.0,1.0,0.6331676244735718,-0.42488878965377797,0.9858965873718262,1.2184696791468346e-07,0.0,0.0,0.0,1.2184696791468346e-07,0.0,0.0,0.0,1.2184696791468346e-07,-0.24516625,-0.15690639999999875,10.11065615,8.999999999999999e-08,0.0,0.0,0.0,8.999999999999999e-08,0.0,0.0,0.0,8.999999999999999e-08
1737286268.7437065,20869,1737286268,741491200,base_link,0.0035793148032210154,0.05783510983104342,-0.9968242407632228,-0.05462345286774595,1.0,0.0,0.0,0.0,1.0,0.0,0.0,0.0,1.0,0.4813471734523773,-0.36683809757232655,1.063712239265442,1.2184696791468346e-07,0.0,0.0,0.0,1.2184696791468346e-07,0.0,0.0,0.0,1.2184696791468346e-07,-0.1176798,-0.14709974999999875,10.07142955,8.999999999999999e-08,0.0,0.0,0.0,8.999999999999999e-08,0.0,0.0,0.0,8.999999999999999e-08
1737286268.8455267,20870,1737286268,841492224,base_link,0.004019921483293685,0.05441822190333941,-0.9985055124045739,-0.0030395811926264816,1.0,0.0,0.0,0.0,1.0,0.0,0.0,0.0,1.0,0.20368564128875732,-0.03365386649966227,1.056020736694336,1.2184696791468346e-07,0.0,0.0,0.0,1.2184696791468346e-07,0.0,0.0,0.0,1.2184696791468346e-07,-0.22555295,-0.22555294999999875,10.2185293,8.999999999999999e-08,0.0,0.0,0.0,8.999999999999999e-08,0.0,0.0,0.0,8.999999999999999e-08
1737286268.9441051,20871,1737286268,941494528,base_link,0.002857149258702897,0.049854321090702335,-0.9978849344810348,0.041617795502400134,1.0,0.0,0.0,0.0,1.0,0.0,0.0,0.0,1.0,-0.14587941765785217,-0.026945522055029758,0.9160506725311279,1.2184696791468346e-07,0.0,0.0,0.0,1.2184696791468346e-07,0.0,0.0,0.0,1.2184696791468346e-07,-0.10787315,-0.2549728999999987,10.24794925,8.999999999999999e-08,0.0,0.0,0.0,8.999999999999999e-08,0.0,0.0,0.0,8.999999999999999e-08
1737286269.0439103,20872,1737286269,41495808,base_link,-0.005773166537144751,0.0443578084761497,-0.9959840984374309,0.0775546970537947,1.0,0.0,0.0,0.0,1.0,0.0,0.0,0.0,1.0,0.06295628845691681,-0.060096003115177064,0.746908962726593,1.2184696791468346e-07,0.0,0.0,0.0,1.2184696791468346e-07,0.0,0.0,0.0,1.2184696791468346e-07,-0.392266,-0.46091254999999876,10.0616229,8.999999999999999e-08,0.0,0.0,0.0,8.999999999999999e-08,0.0,0.0,0.0,8.999999999999999e-08
1737286269.1440303,20873,1737286269,141498112,base_link,-0.015223663324468013,0.0394267224093233,-0.9933168945076094,0.10740261040030696,1.0,0.0,0.0,0.0,1.0,0.0,0.0,0.0,1.0,-0.2857077121734619,-0.20426057279109947,0.6899985074996948,1.2184696791468346e-07,0.0,0.0,0.0,1.2184696791468346e-07,0.0,0.0,0.0,1.2184696791468346e-07,-0.32361945000000003,-0.39226599999999884,9.7870367,8.999999999999999e-08,0.0,0.0,0.0,8.999999999999999e-08,0.0,0.0,0.0,8.999999999999999e-08
1737286269.2441156,20874,1737286269,241499136,base_link,-0.022752734097841933,0.03313261111252821,-0.9905837285545216,0.13087558937770255,1.0,0.0,0.0,0.0,1.0,0.0,0.0,0.0,1.0,0.30881598591804504,-0.11918833851814264,0.4468076527118683,1.2184696791468346e-07,0.0,0.0,0.0,1.2184696791468346e-07,0.0,0.0,0.0,1.2184696791468346e-07,-0.3138128,-0.3432327499999988,9.7478101,8.999999999999999e-08,0.0,0.0,0.0,8.999999999999999e-08,0.0,0.0,0.0,8.999999999999999e-08
1737286269.3423798,20875,1737286269,341501696,base_link,-0.029137899622258514,0.03132806362505188,-0.9878420368471232,0.14945783844561228,1.0,0.0,0.0,0.0,1.0,0.0,0.0,0.0,1.0,0.4820428490638733,-0.21936155855655665,0.3623255789279938,1.2184696791468346e-07,0.0,0.0,0.0,1.2184696791468346e-07,0.0,0.0,0.0,1.2184696791468346e-07,-0.2353596,-0.1372930999999988,9.6301303,8.999999999999999e-08,0.0,0.0,0.0,8.999999999999999e-08,0.0,0.0,0.0,8.999999999999999e-08
1737286269.4440274,20876,1737286269,441502976,base_link,-0.03262192034635655,0.025416135762993286,-0.9854273637596807,0.16499315473509524,1.0,0.0,0.0,0.0,1.0,0.0,0.0,0.0,1.0,0.25152403116226196,-0.23350831866264338,0.3657062947750092,1.2184696791468346e-07,0.0,0.0,0.0,1.2184696791468346e-07,0.0,0.0,0.0,1.2184696791468346e-07,-0.00980665,-0.2157462999999988,9.56148375,8.999999999999999e-08,0.0,0.0,0.0,8.999999999999999e-08,0.0,0.0,0.0,8.999999999999999e-08
1737286269.5428488,20877,1737286269,541505536,base_link,-0.03639092516324944,0.020017892114329645,-0.9830625374483135,0.17850219053766564,1.0,0.0,0.0,0.0,1.0,0.0,0.0,0.0,1.0,0.24363185465335846,-0.07617069780826564,0.36387917399406433,1.2184696791468346e-07,0.0,0.0,0.0,1.2184696791468346e-07,0.0,0.0,0.0,1.2184696791468346e-07,-0.1569064,-0.15690639999999884,9.54187045,8.999999999999999e-08,0.0,0.0,0.0,8.999999999999999e-08,0.0,0.0,0.0,8.999999999999999e-08
1737286269.6426396,20878,1737286269,641506816,base_link,-0.0380740179542982,0.016343119202447645,-0.9810343698522466,0.18935373452920318,1.0,0.0,0.0,0.0,1.0,0.0,0.0,0.0,1.0,-0.4511791467666626,0.17044425010681155,0.2853267192840576,1.2184696791468346e-07,0.0,0.0,0.0,1.2184696791468346e-07,0.0,0.0,0.0,1.2184696791468346e-07,-0.2745862,-0.4412992499999988,9.5124505,8.999999999999999e-08,0.0,0.0,0.0,8.999999999999999e-08,0.0,0.0,0.0,8.999999999999999e-08
1737286269.7440333,20879,1737286269,741509376,base_link,-0.03965667953420722,0.010536592269321948,-0.9791967783706078,0.19872090282678861,1.0,0.0,0.0,0.0,1.0,0.0,0.0,0.0,1.0,-0.2307988852262497,0.11398510634899141,0.09301377087831496,1.2184696791468346e-07,0.0,0.0,0.0,1.2184696791468346e-07,0.0,0.0,0.0,1.2184696791468346e-07,-0.2549729,-0.4216859499999988,9.463417250000001,8.999999999999999e-08,0.0,0.0,0.0,8.999999999999999e-08,0.0,0.0,0.0,8.999999999999999e-08
1737286269.843612,20880,1737286269,841510656,base_link,-0.03899176869620187,0.0025834265424439446,-0.9774680678077129,0.2074346747713552,1.0,0.0,0.0,0.0,1.0,0.0,0.0,0.0,1.0,0.6003457903862,-0.1537257581949234,0.06940606236457826,1.2184696791468346e-07,0.0,0.0,0.0,1.2184696791468346e-07,0.0,0.0,0.0,1.2184696791468346e-07,-0.10787315,-0.2451662499999988,9.54187045,8.999999999999999e-08,0.0,0.0,0.0,8.999999999999999e-08,0.0,0.0,0.0,8.999999999999999e-08
1737286269.9437008,20881,1737286269,941513472,base_link,-0.03823732540426549,0.004374174253810777,-0.9748875066814047,0.21934703750458984,1.0,0.0,0.0,0.0,1.0,0.0,0.0,0.0,1.0,-0.5170367360115051,0.21808354556560522,0.4597119390964508,1.2184696791468346e-07,0.0,0.0,0.0,1.2184696791468346e-07,0.0,0.0,0.0,1.2184696791468346e-07,-0.0392266,-0.0980664999999988,9.7674234,8.999999999999999e-08,0.0,0.0,0.0,8.999999999999999e-08,0.0,0.0,0.0,8.999999999999999e-08
1737286270.0426466,20882,1737286270,41514752,base_link,-0.03816028058922877,0.008030381039969775,-0.9721342164818302,0.23115875737458497,1.0,0.0,0.0,0.0,1.0,0.0,0.0,0.0,1.0,-0.2919292449951172,0.02851473540067675,0.19038185477256775,1.2184696791468346e-07,0.0,0.0,0.0,1.2184696791468346e-07,0.0,0.0,0.0,1.2184696791468346e-07,-0.20593965,-0.3138127999999988,9.8262633,8.999999999999999e-08,0.0,0.0,0.0,8.999999999999999e-08,0.0,0.0,0.0,8.999999999999999e-08
1737286270.14266,20883,1737286270,141517568,base_link,-0.038695856738790384,0.00638473381134513,-0.968808912881415,0.24468583156149465,1.0,0.0,0.0,0.0,1.0,0.0,0.0,0.0,1.0,0.3387199938297272,-0.16312547028064725,0.32231420278549194,1.2184696791468346e-07,0.0,0.0,0.0,1.2184696791468346e-07,0.0,0.0,0.0,1.2184696791468346e-07,-0.16671305,-0.3040061499999988,9.7870367,8.999999999999999e-08,0.0,0.0,0.0,8.999999999999999e-08,0.0,0.0,0.0,8.999999999999999e-08
1737286270.2437336,20884,1737286270,241518848,base_link,-0.03609831844224472,0.008780101072770947,-0.9642329374225216,0.2624398285709123,1.0,0.0,0.0,0.0,1.0,0.0,0.0,0.0,1.0,-0.607646107673645,0.23836906254291543,0.6192490458488464,1.2184696791468346e-07,0.0,0.0,0.0,1.2184696791468346e-07,0.0,0.0,0.0,1.2184696791468346e-07,-0.0588399,-0.2647795499999988,9.9047165,8.999999999999999e-08,0.0,0.0,0.0,8.999999999999999e-08,0.0,0.0,0.0,8.999999999999999e-08
1737286270.3424118,20885,1737286270,341521664,base_link,-0.03221424534296654,0.009973701869737218,-0.9592761893735833,0.28044956795989906,1.0,0.0,0.0,0.0,1.0,0.0,0.0,0.0,1.0,0.04628225043416023,0.0926456153392792,0.27702510356903076,1.2184696791468346e-07,0.0,0.0,0.0,1.2184696791468346e-07,0.0,0.0,0.0,1.2184696791468346e-07,-0.196133,-0.40207264999999875,10.03220295,8.999999999999999e-08,0.0,0.0,0.0,8.999999999999999e-08,0.0,0.0,0.0,8.999999999999999e-08
1737286270.4425673,20886,1737286270,441523200,base_link,-0.029931305255336653,0.00891481196962469,-0.9529392385689007,0.3015484217981947,1.0,0.0,0.0,0.0,1.0,0.0,0.0,0.0,1.0,0.47083210945129395,-0.09742447733879084,0.5034745335578918,1.2184696791468346e-07,0.0,0.0,0.0,1.2184696791468346e-07,0.0,0.0,0.0,1.2184696791468346e-07,-0.16671305,-0.44129924999999876,10.16949605,8.999999999999999e-08,0.0,0.0,0.0,8.999999999999999e-08,0.0,0.0,0.0,8.999999999999999e-08
1737286270.5426836,20887,1737286270,541525760,base_link,-0.026477539831789697,0.010737551357336308,-0.9443278145681553,0.3277630600117051,1.0,0.0,0.0,0.0,1.0,0.0,0.0,0.0,1.0,-0.4523947834968567,0.15371525287628182,0.5974711179733276,1.2184696791468346e-07,0.0,0.0,0.0,1.2184696791468346e-07,0.0,0.0,0.0,1.2184696791468346e-07,-0.00980665,-0.23535959999999875,10.179302700000001,8.999999999999999e-08,0.0,0.0,0.0,8.999999999999999e-08,0.0,0.0,0.0,8.999999999999999e-08
1737286270.644119,20888,1737286270,641527040,base_link,-0.023384559442244907,0.006070178170328601,-0.9344665299533056,0.35523037555043113,1.0,0.0,0.0,0.0,1.0,0.0,0.0,0.0,1.0,0.3716341555118561,-0.12556114792823783,0.6815341711044312,1.2184696791468346e-07,0.0,0.0,0.0,1.2184696791468346e-07,0.0,0.0,0.0,1.2184696791468346e-07,-0.0196133,-0.34323274999999875,10.07142955,8.999999999999999e-08,0.0,0.0,0.0,8.999999999999999e-08,0.0,0.0,0.0,8.999999999999999e-08
1737286270.7427955,20889,1737286270,741529856,base_link,-0.022724633635903647,0.005018569742605137,-0.9227227383241998,0.38476116379299846,1.0,0.0,0.0,0.0,1.0,0.0,0.0,0.0,1.0,0.16182872653007507,-0.05558043718338008,0.3998525142669678,1.2184696791468346e-07,0.0,0.0,0.0,1.2184696791468346e-07,0.0,0.0,0.0,1.2184696791468346e-07,-0.0588399,-0.3138127999999987,10.3362091,8.999999999999999e-08,0.0,0.0,0.0,8.999999999999999e-08,0.0,0.0,0.0,8.999999999999999e-08
1737286270.8439546,20890,1737286270,841531136,base_link,-0.022857900804031894,0.0020815009703178144,-0.9123950353160097,0.408666714151325,1.0,0.0,0.0,0.0,1.0,0.0,0.0,0.0,1.0,0.556171715259552,-0.22629462182521817,0.3376407027244568,1.2184696791468346e-07,0.0,0.0,0.0,1.2184696791468346e-07,0.0,0.0,0.0,1.2184696791468346e-07,-0.1176798,-0.36284604999999875,10.1204628,8.999999999999999e-08,0.0,0.0,0.0,8.999999999999999e-08,0.0,0.0,0.0,8.999999999999999e-08
1737286270.9427218,20891,1737286270,941533952,base_link,-0.022306496417355614,0.004205255046675705,-0.9048690980179526,0.42508428752395944,1.0,0.0,0.0,0.0,1.0,0.0,0.0,0.0,1.0,0.08673939108848572,0.06408319622278216,0.276165634393692,1.2184696791468346e-07,0.0,0.0,0.0,1.2184696791468346e-07,0.0,0.0,0.0,1.2184696791468346e-07,0.0588399,-0.10787314999999875,10.2577559,8.999999999999999e-08,0.0,0.0,0.0,8.999999999999999e-08,0.0,0.0,0.0,8.999999999999999e-08
1737286271.0428464,20892,1737286271,41535232,base_link,-0.02160949616130034,0.007739520219164669,-0.9009390294817099,0.43333819893818104,1.0,0.0,0.0,0.0,1.0,0.0,0.0,0.0,1.0,-0.3448825180530548,0.13162948191165927,0.2151456922292709,1.2184696791468346e-07,0.0,0.0,0.0,1.2184696791468346e-07,0.0,0.0,0.0,1.2184696791468346e-07,-0.12748645,-0.34323274999999875,10.14988275,8.999999999999999e-08,0.0,0.0,0.0,8.999999999999999e-08,0.0,0.0,0.0,8.999999999999999e-08
1737286271.1430924,20893,1737286271,141538304,base_link,-0.01818881910059011,0.010588981566583541,-0.9002199220222387,0.4349265826819312,1.0,0.0,0.0,0.0,1.0,0.0,0.0,0.0,1.0,0.3952982723712921,0.03080642782151699,-0.012868667952716354,1.2184696791468346e-07,0.0,0.0,0.0,1.2184696791468346e-07,0.0,0.0,0.0,1.2184696791468346e-07,0.0,-0.2843928499999988,10.0812362,8.999999999999999e-08,0.0,0.0,0.0,8.999999999999999e-08,0.0,0.0,0.0,8.999999999999999e-08
1737286271.2426655,20894,1737286271,241539584,base_link,-0.015786409748924483,0.008982367585352636,-0.9018558136834731,0.4316551837579635,1.0,0.0,0.0,0.0,1.0,0.0,0.0,0.0,1.0,0.04581930488348007,0.28013768792152405,-0.16602700948715213,1.2184696791468346e-07,0.0,0.0,0.0,1.2184696791468346e-07,0.0,0.0,0.0,1.2184696791468346e-07,-0.0784532,-0.32361944999999875,10.091042850000001,8.999999999999999e-08,0.0,0.0,0.0,8.999999999999999e-08,0.0,0.0,0.0,8.999999999999999e-08
1737286271.3431327,20895,1737286271,341542400,base_link,-0.01460481394202609,0.00958821099978988,-0.9047840446487294,0.42551215983638857,1.0,0.0,0.0,0.0,1.0,0.0,0.0,0.0,1.0,-0.5884016752243042,-0.02546649053692818,-0.03799368813633919,1.2184696791468346e-07,0.0,0.0,0.0,1.2184696791468346e-07,0.0,0.0,0.0,1.2184696791468346e-07,-0.2157463,-0.4216859499999988,9.89490985,8.999999999999999e-08,0.0,0.0,0.0,8.999999999999999e-08,0.0,0.0,0.0,8.999999999999999e-08
1737286271.4427538,20896,1737286271,441544192,base_link,-0.01323809604868198,0.0025064106447139148,-0.9086683049660778,0.41730130873118665,1.0,0.0,0.0,0.0,1.0,0.0,0.0,0.0,1.0,0.05604763701558113,0.08916227519512177,0.027886146679520597,1.2184696791468346e-07,0.0,0.0,0.0,1.2184696791468346e-07,0.0,0.0,0.0,1.2184696791468346e-07,-0.1569064,-0.37265269999999884,9.95374975,8.999999999999999e-08,0.0,0.0,0.0,8.999999999999999e-08,0.0,0.0,0.0,8.999999999999999e-08
1737286271.5428402,20897,1737286271,541546496,base_link,-0.010693058196417594,0.0018519522152010662,-0.9127000818970292,0.40848597195565606,1.0,0.0,0.0,0.0,1.0,0.0,0.0,0.0,1.0,-0.29131603240966797,0.3280661106109619,-0.15457071363925937,1.2184696791468346e-07,0.0,0.0,0.0,1.2184696791468346e-07,0.0,0.0,0.0,1.2184696791468346e-07,0.0,-0.38245934999999875,9.97336305,8.999999999999999e-08,0.0,0.0,0.0,8.999999999999999e-08,0.0,0.0,0.0,8.999999999999999e-08
1737286271.6428108,20898,1737286271,641547776,base_link,-0.011026579641193784,0.000118545208597804,-0.9166521710178832,0.39953372555599254,1.0,0.0,0.0,0.0,1.0,0.0,0.0,0.0,1.0,-0.045019008219242096,0.19004876911640164,-0.25959503650665283,1.2184696791468346e-07,0.0,0.0,0.0,1.2184696791468346e-07,0.0,0.0,0.0,1.2184696791468346e-07,-0.1176798,-0.47071919999999884,9.8654899,8.999999999999999e-08,0.0,0.0,0.0,8.999999999999999e-08,0.0,0.0,0.0,8.999999999999999e-08
1737286271.7428734,20899,1737286271,741550592,base_link,-0.01130137962131491,-0.005227464698894446,-0.9202300037848891,0.3911798723931736,1.0,0.0,0.0,0.0,1.0,0.0,0.0,0.0,1.0,0.2691141963005066,-0.19573923945426946,-0.3504187762737274,1.2184696791468346e-07,0.0,0.0,0.0,1.2184696791468346e-07,0.0,0.0,0.0,1.2184696791468346e-07,0.00980665,-0.3628460499999988,9.9439431,8.999999999999999e-08,0.0,0.0,0.0,8.999999999999999e-08,0.0,0.0,0.0,8.999999999999999e-08
1737286271.8457165,20900,1737286271,841552128,base_link,-0.011195480890685379,-0.006941041360475972,-0.9222128807561589,0.38645812932306756,1.0,0.0,0.0,0.0,1.0,0.0,0.0,0.0,1.0,0.027157530188560486,0.04890750348567964,0.13543452322483063,1.2184696791468346e-07,0.0,0.0,0.0,1.2184696791468346e-07,0.0,0.0,0.0,1.2184696791468346e-07,-0.04903325,-0.33342609999999884,9.9439431,8.999999999999999e-08,0.0,0.0,0.0,8.999999999999999e-08,0.0,0.0,0.0,8.999999999999999e-08
1737286271.9430404,20901,1737286271,941553664,base_link,-0.011293247079173212,-0.0012258388158575245,-0.9236621974821657,0.3830392993310519,1.0,0.0,0.0,0.0,1.0,0.0,0.0,0.0,1.0,-0.28252744674682617,0.2432478964328766,-0.01727801747620109,1.2184696791468346e-07,0.0,0.0,0.0,1.2184696791468346e-07,0.0,0.0,0.0,1.2184696791468346e-07,0.00980665,-0.15690639999999878,10.0223963,8.999999999999999e-08,0.0,0.0,0.0,8.999999999999999e-08,0.0,0.0,0.0,8.999999999999999e-08
1737286272.0443988,20902,1737286272,41555200,base_link,-0.012532743867844642,4.437871219792012e-05,-0.9249383490997067,0.37991048778150616,1.0,0.0,0.0,0.0,1.0,0.0,0.0,0.0,1.0,0.48457223176956177,-0.22629813849925998,-0.16448812186717984,1.2184696791468346e-07,0.0,0.0,0.0,1.2184696791468346e-07,0.0,0.0,0.0,1.2184696791468346e-07,-0.0196133,-0.40207264999999875,9.9635564,8.999999999999999e-08,0.0,0.0,0.0,8.999999999999999e-08,0.0,0.0,0.0,8.999999999999999e-08
1737286272.1442711,20903,1737286272,141558272,base_link,-0.01141294135247595,-0.00019242443510133675,-0.9242827776797572,0.38153774993716455,1.0,0.0,0.0,0.0,1.0,0.0,0.0,0.0,1.0,-0.046809855848550797,-0.08399119973182674,0.3284309208393097,1.2184696791468346e-07,0.0,0.0,0.0,1.2184696791468346e-07,0.0,0.0,0.0,1.2184696791468346e-07,0.02941995,-0.18632634999999875,10.1596894,8.999999999999999e-08,0.0,0.0,0.0,8.999999999999999e-08,0.0,0.0,0.0,8.999999999999999e-08
1737286272.2446783,20904,1737286272,241559808,base_link,-0.010164374816168217,0.004300227798249065,-0.9236753449203663,0.38301703710373264,1.0,0.0,0.0,0.0,1.0,0.0,0.0,0.0,1.0,-0.6193987131118774,0.07234717905521393,-0.030014891177415858,1.2184696791468346e-07,0.0,0.0,0.0,1.2184696791468346e-07,0.0,0.0,0.0,1.2184696791468346e-07,0.0,-0.32361944999999875,10.198916,8.999999999999999e-08,0.0,0.0,0.0,8.999999999999999e-08,0.0,0.0,0.0,8.999999999999999e-08
1737286272.3426402,20905,1737286272,341561344,base_link,-0.009473473151238691,-4.469036659324761e-06,-0.9227146029032203,0.3853673765066688,1.0,0.0,0.0,0.0,1.0,0.0,0.0,0.0,1.0,0.4329790771007538,-0.2478277087211609,-0.029487429186701743,1.2184696791468346e-07,0.0,0.0,0.0,1.2184696791468346e-07,0.0,0.0,0.0,1.2184696791468346e-07,-0.0196133,-0.40207264999999875,9.99297635,8.999999999999999e-08,0.0,0.0,0.0,8.999999999999999e-08,0.0,0.0,0.0,8.999999999999999e-08
1737286272.442834,20906,1737286272,441563136,base_link,-0.009849265035865643,-0.0012954822915690455,-0.9205792520776908,0.39042944861775586,1.0,0.0,0.0,0.0,1.0,0.0,0.0,0.0,1.0,-0.039145659655332565,0.13820561766624453,0.23645794391632077,1.2184696791468346e-07,0.0,0.0,0.0,1.2184696791468346e-07,0.0,0.0,0.0,1.2184696791468346e-07,-0.00980665,-0.11767979999999877,10.05181625,8.999999999999999e-08,0.0,0.0,0.0,8.999999999999999e-08,0.0,0.0,0.0,8.999999999999999e-08
1737286272.542855,20907,1737286272,541564160,base_link,-0.009932095694818522,0.00559880256882097,-0.9180357385465638,0.3963336847104588,1.0,0.0,0.0,0.0,1.0,0.0,0.0,0.0,1.0,-0.6878249645233154,0.12762786448001864,0.24884371459484098,1.2184696791468346e-07,0.0,0.0,0.0,1.2184696791468346e-07,0.0,0.0,0.0,1.2184696791468346e-07,0.1176798,-0.22555294999999875,10.13026945,8.999999999999999e-08,0.0,0.0,0.0,8.999999999999999e-08,0.0,0.0,0.0,8.999999999999999e-08
1737286272.6429703,20908,1737286272,641565952,base_link,-0.009857777905339753,0.0014031241264094915,-0.9162886947781623,0.4003946594039271,1.0,0.0,0.0,0.0,1.0,0.0,0.0,0.0,1.0,0.015637384727597237,0.024812418967485424,-0.03186263144016266,1.2184696791468346e-07,0.0,0.0,0.0,1.2184696791468346e-07,0.0,0.0,0.0,1.2184696791468346e-07,-0.16671305,-0.3824593499999988,9.95374975,8.999999999999999e-08,0.0,0.0,0.0,8.999999999999999e-08,0.0,0.0,0.0,8.999999999999999e-08
1737286272.742884,20909,1737286272,741567232,base_link,-0.009436790367375053,0.0016879785936453678,-0.9145947848499507,0.404257934048427,1.0,0.0,0.0,0.0,1.0,0.0,0.0,0.0,1.0,0.09445394575595856,-0.1394544243812561,-0.09882837533950804,1.2184696791468346e-07,0.0,0.0,0.0,1.2184696791468346e-07,0.0,0.0,0.0,1.2184696791468346e-07,-0.04903325,-0.2647795499999988,10.01258965,8.999999999999999e-08,0.0,0.0,0.0,8.999999999999999e-08,0.0,0.0,0.0,8.999999999999999e-08
1737286272.8429825,20910,1737286272,841569024,base_link,-0.00803679699165913,0.003665237265245125,-0.913262375302495,0.4072760854589292,1.0,0.0,0.0,0.0,1.0,0.0,0.0,0.0,1.0,0.5016692280769348,-0.2358461767435074,-0.11355286091566083,1.2184696791468346e-07,0.0,0.0,0.0,1.2184696791468346e-07,0.0,0.0,0.0,1.2184696791468346e-07,0.0588399,-0.10787314999999878,9.97336305,8.999999999999999e-08,0.0,0.0,0.0,8.999999999999999e-08,0.0,0.0,0.0,8.999999999999999e-08
1737286272.9429755,20911,1737286272,941570304,base_link,-0.00847404694061685,0.005404096014672094,-0.9125460095110771,0.40885054335309584,1.0,0.0,0.0,0.0,1.0,0.0,0.0,0.0,1.0,0.3956943154335022,-0.27576133608818054,-0.1601607799530029,1.2184696791468346e-07,0.0,0.0,0.0,1.2184696791468346e-07,0.0,0.0,0.0,1.2184696791468346e-07,-0.0392266,-0.34323274999999875,9.9831697,8.999999999999999e-08,0.0,0.0,0.0,8.999999999999999e-08,0.0,0.0,0.0,8.999999999999999e-08
1737286273.0428686,20912,1737286273,41572096,base_link,-0.007553435314516819,0.00367083859402594,-0.9124754415441343,0.40904527761337506,1.0,0.0,0.0,0.0,1.0,0.0,0.0,0.0,1.0,0.6049119234085083,-0.21626444160938266,-0.11425009369850156,1.2184696791468346e-07,0.0,0.0,0.0,1.2184696791468346e-07,0.0,0.0,0.0,1.2184696791468346e-07,0.0392266,-0.19613299999999878,10.002783,8.999999999999999e-08,0.0,0.0,0.0,8.999999999999999e-08,0.0,0.0,0.0,8.999999999999999e-08
1737286273.1441126,20913,1737286273,141567744,base_link,-0.006339951704044559,0.003194964147248802,-0.9130189556320758,0.40785534675053847,1.0,0.0,0.0,0.0,1.0,0.0,0.0,0.0,1.0,0.4601651430130005,-0.22094574570655823,-0.0882536247372627,1.2184696791468346e-07,0.0,0.0,0.0,1.2184696791468346e-07,0.0,0.0,0.0,1.2184696791468346e-07,0.0,-0.15690639999999878,9.93413645,8.999999999999999e-08,0.0,0.0,0.0,8.999999999999999e-08,0.0,0.0,0.0,8.999999999999999e-08
1737286273.24288,20914,1737286273,241569536,base_link,-0.0051459759354575115,0.0035408691483959863,-0.913584838066654,0.40660020269556146,1.0,0.0,0.0,0.0,1.0,0.0,0.0,0.0,1.0,0.43067559599876404,-0.08443136513233185,0.013310980051755916,1.2184696791468346e-07,0.0,0.0,0.0,1.2184696791468346e-07,0.0,0.0,0.0,1.2184696791468346e-07,0.00980665,-0.01961329999999877,10.0616229,8.999999999999999e-08,0.0,0.0,0.0,8.999999999999999e-08,0.0,0.0,0.0,8.999999999999999e-08
1737286273.3432107,20915,1737286273,341571328,base_link,-0.005479877397637302,0.004086592096099447,-0.9143009176835716,0.4049779038808487,1.0,0.0,0.0,0.0,1.0,0.0,0.0,0.0,1.0,-0.026004048064351082,0.03412939608097077,0.06068513914942741,1.2184696791468346e-07,0.0,0.0,0.0,1.2184696791468346e-07,0.0,0.0,0.0,1.2184696791468346e-07,0.02941995,-0.14709974999999875,10.0420096,8.999999999999999e-08,0.0,0.0,0.0,8.999999999999999e-08,0.0,0.0,0.0,8.999999999999999e-08
1737286273.4431815,20916,1737286273,441573120,base_link,-0.005597546867801709,0.004862713837302944,-0.9150899399079898,0.4031816257747751,1.0,0.0,0.0,0.0,1.0,0.0,0.0,0.0,1.0,-0.5427168607711792,0.29819026589393616,0.06433492898941036,1.2184696791468346e-07,0.0,0.0,0.0,1.2184696791468346e-07,0.0,0.0,0.0,1.2184696791468346e-07,0.0588399,-0.10787314999999877,10.091042850000001,8.999999999999999e-08,0.0,0.0,0.0,8.999999999999999e-08,0.0,0.0,0.0,8.999999999999999e-08
1737286273.5444922,20917,1737286273,541574912,base_link,-0.006221612123754841,0.006020021755830729,-0.9157523804043388,0.4016498831873696,1.0,0.0,0.0,0.0,1.0,0.0,0.0,0.0,1.0,-0.5745766162872314,0.17598319053649902,0.03778103366494177,1.2184696791468346e-07,0.0,0.0,0.0,1.2184696791468346e-07,0.0,0.0,0.0,1.2184696791468346e-07,0.06864655,-0.2745861999999988,9.8458766,8.999999999999999e-08,0.0,0.0,0.0,8.999999999999999e-08,0.0,0.0,0.0,8.999999999999999e-08
1737286273.6439867,20918,1737286273,641576704,base_link,-0.00699675560859596,0.0057390284573901554,-0.9164975964648261,0.39993782596488126,1.0,0.0,0.0,0.0,1.0,0.0,0.0,0.0,1.0,-0.09374673664569855,-0.21013580262660983,-0.20510943233966825,1.2184696791468346e-07,0.0,0.0,0.0,1.2184696791468346e-07,0.0,0.0,0.0,1.2184696791468346e-07,0.0392266,-0.2647795499999988,9.8262633,8.999999999999999e-08,0.0,0.0,0.0,8.999999999999999e-08,0.0,0.0,0.0,8.999999999999999e-08
1737286273.7443762,20919,1737286273,741578496,base_link,-0.004963149800093988,0.007665621896238088,-0.9166053817930327,0.3996888533009823,1.0,0.0,0.0,0.0,1.0,0.0,0.0,0.0,1.0,0.4558543264865875,-0.18192116916179657,-0.007494640536606289,1.2184696791468346e-07,0.0,0.0,0.0,1.2184696791468346e-07,0.0,0.0,0.0,1.2184696791468346e-07,-0.04903325,-0.15690639999999878,9.9047165,8.999999999999999e-08,0.0,0.0,0.0,8.999999999999999e-08,0.0,0.0,0.0,8.999999999999999e-08
1737286273.8420837,20920,1737286273,841580288,base_link,-0.00497883214854478,0.008035322510149705,-0.9168720401614632,0.3990693007395468,1.0,0.0,0.0,0.0,1.0,0.0,0.0,0.0,1.0,0.3016680181026459,-0.0443299002945423,0.12198852002620697,1.2184696791468346e-07,0.0,0.0,0.0,1.2184696791468346e-07,0.0,0.0,0.0,1.2184696791468346e-07,-0.00980665,-0.16671304999999878,10.01258965,8.999999999999999e-08,0.0,0.0,0.0,8.999999999999999e-08,0.0,0.0,0.0,8.999999999999999e-08
1737286273.9434934,20921,1737286273,941582080,base_link,-0.004759737112393132,0.007234998879187154,-0.9173802607957945,0.39791765077221614,1.0,0.0,0.0,0.0,1.0,0.0,0.0,0.0,1.0,-0.23302370309829712,0.22590632736682892,0.07941470295190808,1.2184696791468346e-07,0.0,0.0,0.0,1.2184696791468346e-07,0.0,0.0,0.0,1.2184696791468346e-07,0.06864655,-0.16671304999999878,10.07142955,8.999999999999999e-08,0.0,0.0,0.0,8.999999999999999e-08,0.0,0.0,0.0,8.999999999999999e-08
1737286274.0422761,20922,1737286274,41584384,base_link,-0.004878305169771787,0.004580990621841178,-0.9181457517723701,0.39618631370346763,1.0,0.0,0.0,0.0,1.0,0.0,0.0,0.0,1.0,-0.5365899801254272,0.15024016797542572,0.042666874825954416,1.2184696791468346e-07,0.0,0.0,0.0,1.2184696791468346e-07,0.0,0.0,0.0,1.2184696791468346e-07,0.0588399,-0.3138127999999988,9.95374975,8.999999999999999e-08,0.0,0.0,0.0,8.999999999999999e-08,0.0,0.0,0.0,8.999999999999999e-08
1737286274.1431816,20923,1737286274,141586432,base_link,-0.006029041636222618,0.002993259769994237,-0.9189663255691946,0.39427856082058427,1.0,0.0,0.0,0.0,1.0,0.0,0.0,0.0,1.0,-0.20641791820526123,-0.08446951210498813,-0.21287274360656738,1.2184696791468346e-07,0.0,0.0,0.0,1.2184696791468346e-07,0.0,0.0,0.0,1.2184696791468346e-07,0.00980665,-0.2745861999999988,9.9831697,8.999999999999999e-08,0.0,0.0,0.0,8.999999999999999e-08,0.0,0.0,0.0,8.999999999999999e-08
1737286274.2433858,20924,1737286274,241588736,base_link,-0.004932247427847339,0.0016191240831204665,-0.9194710569201874,0.39312342445927484,1.0,0.0,0.0,0.0,1.0,0.0,0.0,0.0,1.0,0.5788375735282898,-0.18882130086421967,-0.045472875237464884,1.2184696791468346e-07,0.0,0.0,0.0,1.2184696791468346e-07,0.0,0.0,0.0,1.2184696791468346e-07,-0.14709975,-0.41187929999999884,9.9439431,8.999999999999999e-08,0.0,0.0,0.0,8.999999999999999e-08,0.0,0.0,0.0,8.999999999999999e-08
1737286274.342434,20925,1737286274,341590528,base_link,-0.0048615652026117034,0.003881366911811863,-0.919944220772615,0.3919999117879273,1.0,0.0,0.0,0.0,1.0,0.0,0.0,0.0,1.0,0.45029565691947937,-0.07175023853778839,-0.029432203620672216,1.2184696791468346e-07,0.0,0.0,0.0,1.2184696791468346e-07,0.0,0.0,0.0,1.2184696791468346e-07,-0.00980665,-0.058839899999998765,10.07142955,8.999999999999999e-08,0.0,0.0,0.0,8.999999999999999e-08,0.0,0.0,0.0,8.999999999999999e-08
1737286274.4434042,20926,1737286274,441592576,base_link,-0.0064571034264074055,0.00887035351980945,-0.9194046060604892,0.3931600094090585,1.0,0.0,0.0,0.0,1.0,0.0,0.0,0.0,1.0,-0.1471792757511139,0.08327633887529376,0.1856822967529297,1.2184696791468346e-07,0.0,0.0,0.0,1.2184696791468346e-07,0.0,0.0,0.0,1.2184696791468346e-07,0.1569064,-0.12748644999999875,10.091042850000001,8.999999999999999e-08,0.0,0.0,0.0,8.999999999999999e-08,0.0,0.0,0.0,8.999999999999999e-08
1737286274.543223,20927,1737286274,541594624,base_link,-0.00631852941226054,0.01099416749059844,-0.9192730796413288,0.3934160768372363,1.0,0.0,0.0,0.0,1.0,0.0,0.0,0.0,1.0,-0.6664956212043762,0.1649707704782486,-0.03318350762128832,1.2184696791468346e-07,0.0,0.0,0.0,1.2184696791468346e-07,0.0,0.0,0.0,1.2184696791468346e-07,-0.0980665,-0.5785923499999989,9.95374975,8.999999999999999e-08,0.0,0.0,0.0,8.999999999999999e-08,0.0,0.0,0.0,8.999999999999999e-08
1737286274.642296,20928,1737286274,641596672,base_link,-0.008184205539895914,0.013952802028466374,-0.9194394527752374,0.39289875384837664,1.0,0.0,0.0,0.0,1.0,0.0,0.0,0.0,1.0,0.17216773331165314,-0.2523971199989319,-0.1382474899291992,1.2184696791468346e-07,0.0,0.0,0.0,1.2184696791468346e-07,0.0,0.0,0.0,1.2184696791468346e-07,-0.08825985,-0.2647795499999988,10.01258965,8.999999999999999e-08,0.0,0.0,0.0,8.999999999999999e-08,0.0,0.0,0.0,8.999999999999999e-08
1737286274.7433329,20929,1737286274,741598720,base_link,-0.007381499282409669,0.014487593494385841,-0.9191106411156317,0.39366388263478996,1.0,0.0,0.0,0.0,1.0,0.0,0.0,0.0,1.0,0.43909400701522827,-0.32676148414611816,-0.01920320652425285,1.2184696791468346e-07,0.0,0.0,0.0,1.2184696791468346e-07,0.0,0.0,0.0,1.2184696791468346e-07,-0.00980665,-0.3628460499999988,9.8851032,8.999999999999999e-08,0.0,0.0,0.0,8.999999999999999e-08,0.0,0.0,0.0,8.999999999999999e-08
1737286274.8446126,20930,1737286274,841600768,base_link,-0.007907915471510676,0.01311909656875717,-0.918170517127531,0.39588919618483864,1.0,0.0,0.0,0.0,1.0,0.0,0.0,0.0,1.0,-0.11228043586015701,0.10834366828203204,0.2235952913761139,1.2184696791468346e-07,0.0,0.0,0.0,1.2184696791468346e-07,0.0,0.0,0.0,1.2184696791468346e-07,-0.00980665,-0.20593964999999878,10.03220295,8.999999999999999e-08,0.0,0.0,0.0,8.999999999999999e-08,0.0,0.0,0.0,8.999999999999999e-08
1737286274.9433997,20931,1737286274,941602816,base_link,-0.008668005518550178,0.013999339462818672,-0.9180027409034899,0.3962320681981902,1.0,0.0,0.0,0.0,1.0,0.0,0.0,0.0,1.0,-0.5925567150115967,0.2802741527557373,0.055980116128921474,1.2184696791468346e-07,0.0,0.0,0.0,1.2184696791468346e-07,0.0,0.0,0.0,1.2184696791468346e-07,-0.00980665,-0.32361944999999875,10.05181625,8.999999999999999e-08,0.0,0.0,0.0,8.999999999999999e-08,0.0,0.0,0.0,8.999999999999999e-08
1737286275.042615,20932,1737286275,41604864,base_link,-0.008538609554623268,0.012317465181601662,-0.9180747356826109,0.3961239097803587,1.0,0.0,0.0,0.0,1.0,0.0,0.0,0.0,1.0,-0.4563780725002289,0.08402280509471892,-0.097101166844368,1.2184696791468346e-07,0.0,0.0,0.0,1.2184696791468346e-07,0.0,0.0,0.0,1.2184696791468346e-07,0.00980665,-0.3922659999999987,9.99297635,8.999999999999999e-08,0.0,0.0,0.0,8.999999999999999e-08,0.0,0.0,0.0,8.999999999999999e-08
1737286275.1436288,20933,1737286275,141606912,base_link,-0.008524610468510347,0.010753305176764491,-0.9179982814760728,0.3963468842454956,1.0,0.0,0.0,0.0,1.0,0.0,0.0,0.0,1.0,0.3397679924964905,-0.11376357078552247,-0.09640850871801375,1.2184696791468346e-07,0.0,0.0,0.0,1.2184696791468346e-07,0.0,0.0,0.0,1.2184696791468346e-07,-0.00980665,-0.3040061499999988,9.85568325,8.999999999999999e-08,0.0,0.0,0.0,8.999999999999999e-08,0.0,0.0,0.0,8.999999999999999e-08
1737286275.2435863,20934,1737286275,241609216,base_link,-0.00854131956267068,0.007106917809057199,-0.9178283134754002,0.3968220313469076,1.0,0.0,0.0,0.0,1.0,0.0,0.0,0.0,1.0,0.5835188031196594,-0.2796035706996918,0.0075836856849491934,1.2184696791468346e-07,0.0,0.0,0.0,1.2184696791468346e-07,0.0,0.0,0.0,1.2184696791468346e-07,0.0196133,-0.16671304999999878,10.01258965,8.999999999999999e-08,0.0,0.0,0.0,8.999999999999999e-08,0.0,0.0,0.0,8.999999999999999e-08
1737286275.3424585,20935,1737286275,341611008,base_link,-0.0070983404878747994,0.008465789019814807,-0.9173934354189008,0.39782813956392915,1.0,0.0,0.0,0.0,1.0,0.0,0.0,0.0,1.0,0.26790541410446167,0.04607386887073518,0.11632142961025238,1.2184696791468346e-07,0.0,0.0,0.0,1.2184696791468346e-07,0.0,0.0,0.0,1.2184696791468346e-07,0.0,-0.08825984999999877,10.13026945,8.999999999999999e-08,0.0,0.0,0.0,8.999999999999999e-08,0.0,0.0,0.0,8.999999999999999e-08
1737286275.4426374,20936,1737286275,441613056,base_link,-0.00749213858658465,0.008425911834299625,-0.9172201380255441,0.3982211574860905,1.0,0.0,0.0,0.0,1.0,0.0,0.0,0.0,1.0,0.2192758023738861,0.2167685776948929,0.15432785451412198,1.2184696791468346e-07,0.0,0.0,0.0,1.2184696791468346e-07,0.0,0.0,0.0,1.2184696791468346e-07,-0.0588399,-0.3040061499999988,10.03220295,8.999999999999999e-08,0.0,0.0,0.0,8.999999999999999e-08,0.0,0.0,0.0,8.999999999999999e-08
1737286275.5435786,20937,1737286275,541614848,base_link,-0.006901455333011361,0.010423056754982153,-0.9170698394515633,0.3985306002936947,1.0,0.0,0.0,0.0,1.0,0.0,0.0,0.0,1.0,-0.4059019386768341,0.31902599334716797,0.13945759832859037,1.2184696791468346e-07,0.0,0.0,0.0,1.2184696791468346e-07,0.0,0.0,0.0,1.2184696791468346e-07,0.1176798,-0.2941994999999987,10.1008495,8.999999999999999e-08,0.0,0.0,0.0,8.999999999999999e-08,0.0,0.0,0.0,8.999999999999999e-08
1737286275.6426811,20938,1737286275,641616896,base_link,-0.006798830500221349,0.008463671892398408,-0.9175804628593611,0.39740185749531626,1.0,0.0,0.0,0.0,1.0,0.0,0.0,0.0,1.0,-0.2912443280220032,0.15071387588977814,-0.05990888550877573,1.2184696791468346e-07,0.0,0.0,0.0,1.2184696791468346e-07,0.0,0.0,0.0,1.2184696791468346e-07,-0.0392266,-0.3922659999999987,10.01258965,8.999999999999999e-08,0.0,0.0,0.0,8.999999999999999e-08,0.0,0.0,0.0,8.999999999999999e-08
1737286275.7427018,20939,1737286275,741618688,base_link,-0.008409442198156569,0.007297338719830421,-0.9180935879356302,0.3962072613178673,1.0,0.0,0.0,0.0,1.0,0.0,0.0,0.0,1.0,0.05455269664525986,-0.09416307508945468,-0.2302616685628891,1.2184696791468346e-07,0.0,0.0,0.0,1.2184696791468346e-07,0.0,0.0,0.0,1.2184696791468346e-07,-0.0784532,-0.3824593499999988,9.91452315,8.999999999999999e-08,0.0,0.0,0.0,8.999999999999999e-08,0.0,0.0,0.0,8.999999999999999e-08
1737286275.8433416,20940,1737286275,841620736,base_link,-0.01031770592456163,0.005004256425620301,-0.9184837921898825,0.3952923296075622,1.0,0.0,0.0,0.0,1.0,0.0,0.0,0.0,1.0,0.43275830149650574,-0.29969891905784607,-0.17656499147415158,1.2184696791468346e-07,0.0,0.0,0.0,1.2184696791468346e-07,0.0,0.0,0.0,1.2184696791468346e-07,-0.0588399,-0.19613299999999878,10.0616229,8.999999999999999e-08,0.0,0.0,0.0,8.999999999999999e-08,0.0,0.0,0.0,8.999999999999999e-08
1737286275.9423165,20941,1737286275,941623040,base_link,-0.010313090428115759,0.004184321373070878,-0.9183513288331611,0.3956096162264458,1.0,0.0,0.0,0.0,1.0,0.0,0.0,0.0,1.0,0.5134212374687195,-0.014788860455155367,0.04148975759744644,1.2184696791468346e-07,0.0,0.0,0.0,1.2184696791468346e-07,0.0,0.0,0.0,1.2184696791468346e-07,-0.0196133,-0.13729309999999875,10.0812362,8.999999999999999e-08,0.0,0.0,0.0,8.999999999999999e-08,0.0,0.0,0.0,8.999999999999999e-08
1737286276.0424242,20942,1737286276,41625344,base_link,-0.010165077786276252,0.0033971111179328848,-0.9183782509799625,0.39555848993118087,1.0,0.0,0.0,0.0,1.0,0.0,0.0,0.0,1.0,0.5280921459197998,0.04074549674987794,0.03611805289983749,1.2184696791468346e-07,0.0,0.0,0.0,1.2184696791468346e-07,0.0,0.0,0.0,1.2184696791468346e-07,0.0784532,-0.17651969999999878,10.0616229,8.999999999999999e-08,0.0,0.0,0.0,8.999999999999999e-08,0.0,0.0,0.0,8.999999999999999e-08
1737286276.145792,20943,1737286276,141627136,base_link,-0.009574031928317243,0.006497752301464499,-0.9179132571943507,0.39661236666866845,1.0,0.0,0.0,0.0,1.0,0.0,0.0,0.0,1.0,-0.017394620925188065,0.19291856884956363,0.16652330756187436,1.2184696791468346e-07,0.0,0.0,0.0,1.2184696791468346e-07,0.0,0.0,0.0,1.2184696791468346e-07,0.12748645,-0.2745861999999987,10.1008495,8.999999999999999e-08,0.0,0.0,0.0,8.999999999999999e-08,0.0,0.0,0.0,8.999999999999999e-08
1737286276.2427268,20944,1737286276,241627904,base_link,-0.009489765422465928,0.008419206787043469,-0.9177876603152204,0.3968688346071247,1.0,0.0,0.0,0.0,1.0,0.0,0.0,0.0,1.0,-0.36363404989242554,0.31325265765190125,0.09846240282058712,1.2184696791468346e-07,0.0,0.0,0.0,1.2184696791468346e-07,0.0,0.0,0.0,1.2184696791468346e-07,-0.1569064,-0.4118792999999987,10.0223963,8.999999999999999e-08,0.0,0.0,0.0,8.999999999999999e-08,0.0,0.0,0.0,8.999999999999999e-08
1737286276.34235,20945,1737286276,341629952,base_link,-0.009224231394002226,0.009152083477042454,-0.9179440474418341,0.3964970096852219,1.0,0.0,0.0,0.0,1.0,0.0,0.0,0.0,1.0,0.0011657923460006714,-0.10927344113588336,-0.20095095038414001,1.2184696791468346e-07,0.0,0.0,0.0,1.2184696791468346e-07,0.0,0.0,0.0,1.2184696791468346e-07,0.0392266,-0.3334260999999987,10.05181625,8.999999999999999e-08,0.0,0.0,0.0,8.999999999999999e-08,0.0,0.0,0.0,8.999999999999999e-08
1737286276.4472585,20946,1737286276,441630720,base_link,-0.009988334723013255,0.0051639178707737895,-0.9173803404939793,0.39785283459695947,1.0,0.0,0.0,0.0,1.0,0.0,0.0,0.0,1.0,0.5079551339149475,-0.19748245179653168,-0.024562291800975775,1.2184696791468346e-07,0.0,0.0,0.0,1.2184696791468346e-07,0.0,0.0,0.0,1.2184696791468346e-07,-0.04903325,-0.3040061499999988,10.002783,8.999999999999999e-08,0.0,0.0,0.0,8.999999999999999e-08,0.0,0.0,0.0,8.999999999999999e-08
1737286276.544845,20947,1737286276,541632768,base_link,-0.009418492402944704,0.004349444399972926,-0.9165446732653038,0.3997977441698047,1.0,0.0,0.0,0.0,1.0,0.0,0.0,0.0,1.0,0.22657062113285065,-0.0026708543300628424,0.1956218034029007,1.2184696791468346e-07,0.0,0.0,0.0,1.2184696791468346e-07,0.0,0.0,0.0,1.2184696791468346e-07,0.0980665,-0.11767979999999877,10.0616229,8.999999999999999e-08,0.0,0.0,0.0,8.999999999999999e-08,0.0,0.0,0.0,8.999999999999999e-08
1737286276.642541,20948,1737286276,641633536,base_link,-0.009918348365907733,0.005006058759005789,-0.9157754651411218,0.401536876496986,1.0,0.0,0.0,0.0,1.0,0.0,0.0,0.0,1.0,-0.09698045253753662,0.06141132116317751,0.1967717409133911,1.2184696791468346e-07,0.0,0.0,0.0,1.2184696791468346e-07,0.0,0.0,0.0,1.2184696791468346e-07,0.0,-0.17651969999999878,10.01258965,8.999999999999999e-08,0.0,0.0,0.0,8.999999999999999e-08,0.0,0.0,0.0,8.999999999999999e-08
1737286276.7424734,20949,1737286276,741635840,base_link,-0.010114664168815889,0.006358552032851383,-0.9153901190819149,0.4023905966495679,1.0,0.0,0.0,0.0,1.0,0.0,0.0,0.0,1.0,-0.3683620095252991,0.2763576805591583,-0.007907336577773129,1.2184696791468346e-07,0.0,0.0,0.0,1.2184696791468346e-07,0.0,0.0,0.0,1.2184696791468346e-07,-0.1569064,-0.3530393999999987,10.01258965,8.999999999999999e-08,0.0,0.0,0.0,8.999999999999999e-08,0.0,0.0,0.0,8.999999999999999e-08
1737286276.844501,20950,1737286276,841636864,base_link,-0.01089612602877785,0.007485130166656493,-0.9153269270821174,0.4024945512952461,1.0,0.0,0.0,0.0,1.0,0.0,0.0,0.0,1.0,-0.11478686332702637,0.06954455375671385,-0.09541065990924837,1.2184696791468346e-07,0.0,0.0,0.0,1.2184696791468346e-07,0.0,0.0,0.0,1.2184696791468346e-07,-0.0588399,-0.37265269999999884,9.9243298,8.999999999999999e-08,0.0,0.0,0.0,8.999999999999999e-08,0.0,0.0,0.0,8.999999999999999e-08
1737286276.9429488,20951,1737286276,941638912,base_link,-0.010259629195654808,0.007838567290132615,-0.9152675554408858,0.4026395395746313,1.0,0.0,0.0,0.0,1.0,0.0,0.0,0.0,1.0,-0.28562378883361816,0.04029596969485281,-0.16046220064163208,1.2184696791468346e-07,0.0,0.0,0.0,1.2184696791468346e-07,0.0,0.0,0.0,1.2184696791468346e-07,0.00980665,-0.3530393999999987,10.002783,8.999999999999999e-08,0.0,0.0,0.0,8.999999999999999e-08,0.0,0.0,0.0,8.999999999999999e-08
1737286277.044041,20952,1737286277,41639680,base_link,-0.009483171891954086,0.006379535171226404,-0.9155379974474607,0.4020690813924393,1.0,0.0,0.0,0.0,1.0,0.0,0.0,0.0,1.0,0.3036995530128479,-0.11435427516698839,-0.15338084101676938,1.2184696791468346e-07,0.0,0.0,0.0,1.2184696791468346e-07,0.0,0.0,0.0,1.2184696791468346e-07,0.0588399,-0.21574629999999878,9.9831697,8.999999999999999e-08,0.0,0.0,0.0,8.999999999999999e-08,0.0,0.0,0.0,8.999999999999999e-08
1737286277.1424737,20953,1737286277,141641984,base_link,-0.010044324009171017,0.004774282140173193,-0.91592636261535,0.40119224325933694,1.0,0.0,0.0,0.0,1.0,0.0,0.0,0.0,1.0,0.27944889664649963,-0.20614026486873627,-0.012544484809040997,1.2184696791468346e-07,0.0,0.0,0.0,1.2184696791468346e-07,0.0,0.0,0.0,1.2184696791468346e-07,0.0,-0.23535959999999878,9.9831697,8.999999999999999e-08,0.0,0.0,0.0,8.999999999999999e-08,0.0,0.0,0.0,8.999999999999999e-08
1737286277.2434897,20954,1737286277,241643008,base_link,-0.009160627707607108,0.003906419012921732,-0.9162155584140781,0.4005619469076876,1.0,0.0,0.0,0.0,1.0,0.0,0.0,0.0,1.0,0.2005421221256256,-0.09686661511659621,0.059224326163530364,1.2184696791468346e-07,0.0,0.0,0.0,1.2184696791468346e-07,0.0,0.0,0.0,1.2184696791468346e-07,0.0784532,-0.09806649999999877,10.11065615,8.999999999999999e-08,0.0,0.0,0.0,8.999999999999999e-08,0.0,0.0,0.0,8.999999999999999e-08
1737286277.3462722,20955,1737286277,341645312,base_link,-0.00996138750796999,0.0033000750962390467,-0.9161683781813802,0.4006561906220531,1.0,0.0,0.0,0.0,1.0,0.0,0.0,0.0,1.0,-0.26872947812080383,0.0907712206244469,0.2081955075263977,1.2184696791468346e-07,0.0,0.0,0.0,1.2184696791468346e-07,0.0,0.0,0.0,1.2184696791468346e-07,0.0,-0.10787314999999877,10.091042850000001,8.999999999999999e-08,0.0,0.0,0.0,8.999999999999999e-08,0.0,0.0,0.0,8.999999999999999e-08
1737286277.442694,20956,1737286277,441646336,base_link,-0.008893989489487915,0.006801073420958288,-0.9162113213588705,0.4005389581115875,1.0,0.0,0.0,0.0,1.0,0.0,0.0,0.0,1.0,-0.7380595803260803,0.27625784277915955,0.07961905002593991,1.2184696791468346e-07,0.0,0.0,0.0,1.2184696791468346e-07,0.0,0.0,0.0,1.2184696791468346e-07,-0.0784532,-0.2843928499999988,10.03220295,8.999999999999999e-08,0.0,0.0,0.0,8.999999999999999e-08,0.0,0.0,0.0,8.999999999999999e-08
1737286277.5427697,20957,1737286277,541648384,base_link,-0.009422260732593614,0.006399271249776629,-0.9165262391462943,0.39981236009721904,1.0,0.0,0.0,0.0,1.0,0.0,0.0,0.0,1.0,-0.22445906698703766,-0.06748322397470476,-0.11128799617290495,1.2184696791468346e-07,0.0,0.0,0.0,1.2184696791468346e-07,0.0,0.0,0.0,1.2184696791468346e-07,-0.10787315,-0.3236194499999988,9.93413645,8.999999999999999e-08,0.0,0.0,0.0,8.999999999999999e-08,0.0,0.0,0.0,8.999999999999999e-08
1737286277.644546,20958,1737286277,641649408,base_link,-0.011670425901519905,0.00526645901416356,-0.9165688007916304,0.3996719892413299,1.0,0.0,0.0,0.0,1.0,0.0,0.0,0.0,1.0,0.31346428394317627,-0.37780484557151794,-0.06461717933416362,1.2184696791468346e-07,0.0,0.0,0.0,1.2184696791468346e-07,0.0,0.0,0.0,1.2184696791468346e-07,-0.0784532,-0.3236194499999988,9.8851032,8.999999999999999e-08,0.0,0.0,0.0,8.999999999999999e-08,0.0,0.0,0.0,8.999999999999999e-08
1737286277.7425768,20959,1737286277,741651712,base_link,-0.012184923232987848,0.0046038839495162525,-0.9164920332829604,0.399840824362959,1.0,0.0,0.0,0.0,1.0,0.0,0.0,0.0,1.0,0.43084079027175903,-0.3014398515224457,-0.015472206287085974,1.2184696791468346e-07,0.0,0.0,0.0,1.2184696791468346e-07,0.0,0.0,0.0,1.2184696791468346e-07,0.0392266,-0.14709974999999875,10.03220295,8.999999999999999e-08,0.0,0.0,0.0,8.999999999999999e-08,0.0,0.0,0.0,8.999999999999999e-08
1737286277.8426042,20960,1737286277,841652992,base_link,-0.011779645190596577,0.004469012183182451,-0.9159691798754741,0.4010507815820107,1.0,0.0,0.0,0.0,1.0,0.0,0.0,0.0,1.0,0.11740332841873169,-0.010855953209102133,0.16522128880023956,1.2184696791468346e-07,0.0,0.0,0.0,1.2184696791468346e-07,0.0,0.0,0.0,1.2184696791468346e-07,-0.0196133,-0.21574629999999878,9.97336305,8.999999999999999e-08,0.0,0.0,0.0,8.999999999999999e-08,0.0,0.0,0.0,8.999999999999999e-08
1737286277.942808,20961,1737286277,941655040,base_link,-0.011209586137925338,0.006072191084276617,-0.9157059257025966,0.4016467743020016,1.0,0.0,0.0,0.0,1.0,0.0,0.0,0.0,1.0,-0.28990718722343445,0.16556915640830996,0.16853752732276914,1.2184696791468346e-07,0.0,0.0,0.0,1.2184696791468346e-07,0.0,0.0,0.0,1.2184696791468346e-07,0.06864655,-0.06864654999999877,10.1008495,8.999999999999999e-08,0.0,0.0,0.0,8.999999999999999e-08,0.0,0.0,0.0,8.999999999999999e-08
1737286278.042954,20962,1737286278,41656064,base_link,-0.010628309622752045,0.007963070022428846,-0.9154610594478865,0.4021873657699034,1.0,0.0,0.0,0.0,1.0,0.0,0.0,0.0,1.0,-0.38882049918174744,0.5247421264648438,0.0778111666440963,1.2184696791468346e-07,0.0,0.0,0.0,1.2184696791468346e-07,0.0,0.0,0.0,1.2184696791468346e-07,0.0196133,-0.30400614999999875,10.11065615,8.999999999999999e-08,0.0,0.0,0.0,8.999999999999999e-08,0.0,0.0,0.0,8.999999999999999e-08
1737286278.142771,20963,1737286278,141658368,base_link,-0.01159610583456719,0.010031628003399226,-0.9153296715199344,0.402413331295428,1.0,0.0,0.0,0.0,1.0,0.0,0.0,0.0,1.0,-0.41724294424057007,0.1571454554796219,0.018170438706874827,1.2184696791468346e-07,0.0,0.0,0.0,1.2184696791468346e-07,0.0,0.0,0.0,1.2184696791468346e-07,0.04903325,-0.41187929999999884,9.89490985,8.999999999999999e-08,0.0,0.0,0.0,8.999999999999999e-08,0.0,0.0,0.0,8.999999999999999e-08
1737286278.2428124,20964,1737286278,241659648,base_link,-0.011070360552892724,0.008081683035331202,-0.9155665804630222,0.4019327932077618,1.0,0.0,0.0,0.0,1.0,0.0,0.0,0.0,1.0,-0.24280133843421936,-0.05035578459501268,-0.12066496908664703,1.2184696791468346e-07,0.0,0.0,0.0,1.2184696791468346e-07,0.0,0.0,0.0,1.2184696791468346e-07,0.0,-0.38245934999999875,9.97336305,8.999999999999999e-08,0.0,0.0,0.0,8.999999999999999e-08,0.0,0.0,0.0,8.999999999999999e-08
1737286278.343091,20965,1737286278,341662208,base_link,-0.010942860200815691,0.0067599030379404445,-0.9159630669280403,0.4010563770161511,1.0,0.0,0.0,0.0,1.0,0.0,0.0,0.0,1.0,0.24465441703796387,-0.07008915394544603,-0.16159756481647491,1.2184696791468346e-07,0.0,0.0,0.0,1.2184696791468346e-07,0.0,0.0,0.0,1.2184696791468346e-07,-0.0392266,-0.3040061499999988,9.9831697,8.999999999999999e-08,0.0,0.0,0.0,8.999999999999999e-08,0.0,0.0,0.0,8.999999999999999e-08
1737286278.4431565,20966,1737286278,441663488,base_link,-0.01001599877875913,0.005277705886678751,-0.9167876310383518,0.3992145603107738,1.0,0.0,0.0,0.0,1.0,0.0,0.0,0.0,1.0,0.35925567150115967,-0.1513410806655884,-0.20982745289802548,1.2184696791468346e-07,0.0,0.0,0.0,1.2184696791468346e-07,0.0,0.0,0.0,1.2184696791468346e-07,-0.0196133,-0.19613299999999878,10.0812362,8.999999999999999e-08,0.0,0.0,0.0,8.999999999999999e-08,0.0,0.0,0.0,8.999999999999999e-08
1737286278.5430267,20967,1737286278,541666304,base_link,-0.008522766167270816,0.004030637968322971,-0.9172383228476311,0.398227291272323,1.0,0.0,0.0,0.0,1.0,0.0,0.0,0.0,1.0,0.5638989210128784,-0.12464015185832977,-0.0126801962032914,1.2184696791468346e-07,0.0,0.0,0.0,1.2184696791468346e-07,0.0,0.0,0.0,1.2184696791468346e-07,0.00980665,-0.08825984999999877,10.11065615,8.999999999999999e-08,0.0,0.0,0.0,8.999999999999999e-08,0.0,0.0,0.0,8.999999999999999e-08
1737286278.642892,20968,1737286278,641667328,base_link,-0.008214945922796634,0.0033457832298194132,-0.9174836338976238,0.3976746181592129,1.0,0.0,0.0,0.0,1.0,0.0,0.0,0.0,1.0,0.28192487359046936,0.20117034018039706,0.18380676209926602,1.2184696791468346e-07,0.0,0.0,0.0,1.2184696791468346e-07,0.0,0.0,0.0,1.2184696791468346e-07,-0.0196133,-0.15690639999999875,10.0812362,8.999999999999999e-08,0.0,0.0,0.0,8.999999999999999e-08,0.0,0.0,0.0,8.999999999999999e-08
1737286278.7429142,20969,1737286278,741669888,base_link,-0.008076900771544222,0.006629267759340724,-0.9178046498527199,0.3968947482540276,1.0,0.0,0.0,0.0,1.0,0.0,0.0,0.0,1.0,-0.2593145966529846,0.21980853378772736,0.05329753085970876,1.2184696791468346e-07,0.0,0.0,0.0,1.2184696791468346e-07,0.0,0.0,0.0,1.2184696791468346e-07,0.06864655,-0.14709974999999878,10.0223963,8.999999999999999e-08,0.0,0.0,0.0,8.999999999999999e-08,0.0,0.0,0.0,8.999999999999999e-08
1737286278.8427598,20970,1737286278,841671168,base_link,-0.007184824025649381,0.005705743635536572,-0.9183079873417628,0.3957603607962864,1.0,0.0,0.0,0.0,1.0,0.0,0.0,0.0,1.0,-0.10970310121774673,0.07365698367357253,-0.1393464356660843,1.2184696791468346e-07,0.0,0.0,0.0,1.2184696791468346e-07,0.0,0.0,0.0,1.2184696791468346e-07,-0.00980665,-0.39226599999999884,9.95374975,8.999999999999999e-08,0.0,0.0,0.0,8.999999999999999e-08,0.0,0.0,0.0,8.999999999999999e-08
1737286278.9429426,20971,1737286278,941673984,base_link,-0.008766384303538445,0.0032215512331353006,-0.9189731348125805,0.3942095250074937,1.0,0.0,0.0,0.0,1.0,0.0,0.0,0.0,1.0,0.26768699288368225,-0.2320251911878586,-0.14134977757930753,1.2184696791468346e-07,0.0,0.0,0.0,1.2184696791468346e-07,0.0,0.0,0.0,1.2184696791468346e-07,-0.14709975,-0.3628460499999988,9.91452315,8.999999999999999e-08,0.0,0.0,0.0,8.999999999999999e-08,0.0,0.0,0.0,8.999999999999999e-08
1737286279.0429418,20972,1737286279,41675520,base_link,-0.008077510339751934,0.005035321133415769,-0.9190027432415155,0.3941362166591183,1.0,0.0,0.0,0.0,1.0,0.0,0.0,0.0,1.0,0.1737743616104126,-0.0781760886311531,0.021035078912973414,1.2184696791468346e-07,0.0,0.0,0.0,1.2184696791468346e-07,0.0,0.0,0.0,1.2184696791468346e-07,0.02941995,-0.17651969999999878,9.9831697,8.999999999999999e-08,0.0,0.0,0.0,8.999999999999999e-08,0.0,0.0,0.0,8.999999999999999e-08
1737286279.1428137,20973,1737286279,141678336,base_link,-0.009149694142409659,0.011302848232561316,-0.9181881923989279,0.3958774710161233,1.0,0.0,0.0,0.0,1.0,0.0,0.0,0.0,1.0,-0.501317024230957,0.12333802133798602,0.27383092045783997,1.2184696791468346e-07,0.0,0.0,0.0,1.2184696791468346e-07,0.0,0.0,0.0,1.2184696791468346e-07,0.0196133,-0.13729309999999875,10.05181625,8.999999999999999e-08,0.0,0.0,0.0,8.999999999999999e-08,0.0,0.0,0.0,8.999999999999999e-08
1737286279.2428122,20974,1737286279,241679872,base_link,-0.009357878422188475,0.015105076832194501,-0.9182799801347457,0.39553273549614065,1.0,0.0,0.0,0.0,1.0,0.0,0.0,0.0,1.0,-0.2141992747783661,0.14096212387084958,-0.1421243101358414,1.2184696791468346e-07,0.0,0.0,0.0,1.2184696791468346e-07,0.0,0.0,0.0,1.2184696791468346e-07,-0.06864655,-0.20593964999999878,10.091042850000001,8.999999999999999e-08,0.0,0.0,0.0,8.999999999999999e-08,0.0,0.0,0.0,8.999999999999999e-08
1737286279.342954,20975,1737286279,341681408,base_link,-0.009305636028948707,0.01288905692271527,-0.9182620190971031,0.39565406813711756,1.0,0.0,0.0,0.0,1.0,0.0,0.0,0.0,1.0,-0.14729349315166473,-0.06721754372119906,-0.19820155203342438,1.2184696791468346e-07,0.0,0.0,0.0,1.2184696791468346e-07,0.0,0.0,0.0,1.2184696791468346e-07,0.0392266,-0.4314925999999987,10.091042850000001,8.999999999999999e-08,0.0,0.0,0.0,8.999999999999999e-08,0.0,0.0,0.0,8.999999999999999e-08
1737286279.4444475,20976,1737286279,441682944,base_link,-0.009113967637076418,0.009547712311199726,-0.9182334805192727,0.39581946899690973,1.0,0.0,0.0,0.0,1.0,0.0,0.0,0.0,1.0,0.44835540652275085,-0.11739841103553773,-0.08358217775821684,1.2184696791468346e-07,0.0,0.0,0.0,1.2184696791468346e-07,0.0,0.0,0.0,1.2184696791468346e-07,0.0784532,-0.18632634999999878,10.0812362,8.999999999999999e-08,0.0,0.0,0.0,8.999999999999999e-08,0.0,0.0,0.0,8.999999999999999e-08
1737286279.5428576,20977,1737286279,541684224,base_link,-0.009073296245418673,0.008801039191595429,-0.9175121193032159,0.39750689042595466,1.0,0.0,0.0,0.0,1.0,0.0,0.0,0.0,1.0,0.07366306334733963,-0.027496119961142516,0.1915692239999771,1.2184696791468346e-07,0.0,0.0,0.0,1.2184696791468346e-07,0.0,0.0,0.0,1.2184696791468346e-07,0.0,-0.09806649999999877,10.14988275,8.999999999999999e-08,0.0,0.0,0.0,8.999999999999999e-08,0.0,0.0,0.0,8.999999999999999e-08
1737286279.6429145,20978,1737286279,641686016,base_link,-0.007411657678092863,0.011447349617839699,-0.9169400762532227,0.3987918279979213,1.0,0.0,0.0,0.0,1.0,0.0,0.0,0.0,1.0,-0.5692635178565979,0.2968183159828186,0.11119499057531353,1.2184696791468346e-07,0.0,0.0,0.0,1.2184696791468346e-07,0.0,0.0,0.0,1.2184696791468346e-07,0.06864655,-0.16671304999999875,10.1596894,8.999999999999999e-08,0.0,0.0,0.0,8.999999999999999e-08,0.0,0.0,0.0,8.999999999999999e-08
1737286279.74308,20979,1737286279,741687552,base_link,-0.00807558343203522,0.010713165364352451,-0.9165412966397533,0.39971497919646193,1.0,0.0,0.0,0.0,1.0,0.0,0.0,0.0,1.0,-0.2961079478263855,0.1623983085155487,0.07935167849063872,1.2184696791468346e-07,0.0,0.0,0.0,1.2184696791468346e-07,0.0,0.0,0.0,1.2184696791468346e-07,-0.02941995,-0.3628460499999988,9.93413645,8.999999999999999e-08,0.0,0.0,0.0,8.999999999999999e-08,0.0,0.0,0.0,8.999999999999999e-08
1737286279.842941,20980,1737286279,841689088,base_link,-0.009035605437777542,0.005408187720075568,-0.9165657476744029,0.3997453433500132,1.0,0.0,0.0,0.0,1.0,0.0,0.0,0.0,1.0,0.11246837675571442,-0.1356322765350342,-0.23788219690322873,1.2184696791468346e-07,0.0,0.0,0.0,1.2184696791468346e-07,0.0,0.0,0.0,1.2184696791468346e-07,-0.06864655,-0.4020726499999988,9.91452315,8.999999999999999e-08,0.0,0.0,0.0,8.999999999999999e-08,0.0,0.0,0.0,8.999999999999999e-08
1737286279.9430673,20981,1737286279,941690624,base_link,-0.010502331598932131,0.0025622848450764196,-0.9161012520179248,0.4008012372467795,1.0,0.0,0.0,0.0,1.0,0.0,0.0,0.0,1.0,0.39856740832328796,-0.2879715859889984,-0.01994640193879601,1.2184696791468346e-07,0.0,0.0,0.0,1.2184696791468346e-07,0.0,0.0,0.0,1.2184696791468346e-07,-0.02941995,-0.17651969999999878,9.9635564,8.999999999999999e-08,0.0,0.0,0.0,8.999999999999999e-08,0.0,0.0,0.0,8.999999999999999e-08
1737286280.043287,20982,1737286280,41692416,base_link,-0.010839438954219214,0.005424409289542428,-0.9154830972224617,0.40217381944500813,1.0,0.0,0.0,0.0,1.0,0.0,0.0,0.0,1.0,0.0906696543097496,0.1535158157348633,0.15093724429607389,1.2184696791468346e-07,0.0,0.0,0.0,1.2184696791468346e-07,0.0,0.0,0.0,1.2184696791468346e-07,0.0980665,-0.07845319999999878,10.01258965,8.999999999999999e-08,0.0,0.0,0.0,8.999999999999999e-08,0.0,0.0,0.0,8.999999999999999e-08
