Time,header.seq,header.stamp.secs,header.stamp.nsecs,header.frame_id,orientation.x,orientation.y,orientation.z,orientation.w,orientation_covariance_0,orientation_covariance_1,orientation_covariance_2,orientation_covariance_3,orientation_covariance_4,orientation_covariance_5,orientation_covariance_6,orientation_covariance_7,orientation_covariance_8,angular_velocity.x,angular_velocity.y,angular_velocity.z,angular_velocity_covariance_0,angular_velocity_covariance_1,angular_velocity_covariance_2,angular_velocity_covariance_3,angular_velocity_covariance_4,angular_velocity_covariance_5,angular_velocity_covariance_6,angular_velocity_covariance_7,angular_velocity_covariance_8,linear_acceleration.x,linear_acceleration.y,linear_acceleration.z,linear_acceleration_covariance_0,linear_acceleration_covariance_1,linear_acceleration_covariance_2,linear_acceleration_covariance_3,linear_acceleration_covariance_4,linear_acceleration_covariance_5,linear_acceleration_covariance_6,linear_acceleration_covariance_7,linear_acceleration_covariance_8
1729403412.219927,2308,1729403412,24579968,base_link,-0.039097245506112016,0.018165682450067194,-0.35831090507008334,-0.932606406091453,1.0,0.0,0.0,0.0,1.0,0.0,0.0,0.0,1.0,-0.0010342919267714024,0.0008656465797685088,0.0007047448307275771,1.2184696791468346e-07,0.0,0.0,0.0,1.2184696791468346e-07,0.0,0.0,0.0,1.2184696791468346e-07,0.2549729,0.9218251000000013,9.8654899,8.999999999999999e-08,0.0,0.0,0.0,8.999999999999999e-08,0.0,0.0,0.0,8.999999999999999e-08
1729403412.220291,2309,1729403412,124574592,base_link,-0.039089822299160366,0.018192331622598985,-0.3583070915405557,-0.9326076629614948,1.0,0.0,0.0,0.0,1.0,0.0,0.0,0.0,1.0,-0.0012175767915323377,-0.0009957168949767947,0.00029765762155875574,1.2184696791468346e-07,0.0,0.0,0.0,1.2184696791468346e-07,0.0,0.0,0.0,1.2184696791468346e-07,0.26477955,0.9218251000000013,9.87529655,8.999999999999999e-08,0.0,0.0,0.0,8.999999999999999e-08,0.0,0.0,0.0,8.999999999999999e-08
1729403412.2264166,2310,1729403412,224569216,base_link,-0.03908393902347966,0.018213071487711688,-0.35831707043226596,-0.9326036707917416,1.0,0.0,0.0,0.0,1.0,0.0,0.0,0.0,1.0,-0.00015192989667411894,-3.515863500069825e-05,0.0001732184027787298,1.2184696791468346e-07,0.0,0.0,0.0,1.2184696791468346e-07,0.0,0.0,0.0,1.2184696791468346e-07,0.26477955,0.9316317500000013,9.87529655,8.999999999999999e-08,0.0,0.0,0.0,8.999999999999999e-08,0.0,0.0,0.0,8.999999999999999e-08
1729403412.327305,2311,1729403412,324563840,base_link,-0.03904711130023393,0.018206988441789917,-0.35832266688378533,-0.9326031819955791,1.0,0.0,0.0,0.0,1.0,0.0,0.0,0.0,1.0,0.0015585606452077627,-0.00043719937093555927,-5.5175136367324685e-05,1.2184696791468346e-07,0.0,0.0,0.0,1.2184696791468346e-07,0.0,0.0,0.0,1.2184696791468346e-07,0.26477955,0.9218251000000013,9.8851032,8.999999999999999e-08,0.0,0.0,0.0,8.999999999999999e-08,0.0,0.0,0.0,8.999999999999999e-08
1729403412.425934,2312,1729403412,424559232,base_link,-0.039033125570904735,0.01817680437301784,-0.3583122256411849,-0.9326083678838677,1.0,0.0,0.0,0.0,1.0,0.0,0.0,0.0,1.0,-0.00023084209533408284,0.0010704479645937681,0.00038699444849044074,1.2184696791468346e-07,0.0,0.0,0.0,1.2184696791468346e-07,0.0,0.0,0.0,1.2184696791468346e-07,0.28439285000000003,0.9120184500000013,9.87529655,8.999999999999999e-08,0.0,0.0,0.0,8.999999999999999e-08,0.0,0.0,0.0,8.999999999999999e-08
1729403412.525966,2313,1729403412,524556416,base_link,-0.03907634291460099,0.01816283332024069,-0.3583033092782171,-0.9326102559324985,1.0,0.0,0.0,0.0,1.0,0.0,0.0,0.0,1.0,0.0016791997477412224,0.000249216245720163,-0.00019685173174366358,1.2184696791468346e-07,0.0,0.0,0.0,1.2184696791468346e-07,0.0,0.0,0.0,1.2184696791468346e-07,0.2549729,0.9022118000000012,9.85568325,8.999999999999999e-08,0.0,0.0,0.0,8.999999999999999e-08,0.0,0.0,0.0,8.999999999999999e-08
1729403412.6258857,2314,1729403412,624551040,base_link,-0.03915028177872635,0.018136423325919738,-0.35828450620807334,-0.9326148927595068,1.0,0.0,0.0,0.0,1.0,0.0,0.0,0.0,1.0,9.71405825112015e-05,0.0010255915112793446,0.00016060781490523355,1.2184696791468346e-07,0.0,0.0,0.0,1.2184696791468346e-07,0.0,0.0,0.0,1.2184696791468346e-07,0.2549729,0.9218251000000013,9.87529655,8.999999999999999e-08,0.0,0.0,0.0,8.999999999999999e-08,0.0,0.0,0.0,8.999999999999999e-08
1729403412.7259622,2315,1729403412,724546688,base_link,-0.03919594896030582,0.018124419623019073,-0.3582804158185578,-0.9326147793378095,1.0,0.0,0.0,0.0,1.0,0.0,0.0,0.0,1.0,-0.0004894948797300458,0.0007469163974747062,-6.351046613417575e-05,1.2184696791468346e-07,0.0,0.0,0.0,1.2184696791468346e-07,0.0,0.0,0.0,1.2184696791468346e-07,0.24516625,0.9120184500000013,9.8654899,8.999999999999999e-08,0.0,0.0,0.0,8.999999999999999e-08,0.0,0.0,0.0,8.999999999999999e-08
1729403412.8259628,2316,1729403412,824543616,base_link,-0.039222620336646495,0.018155690531790704,-0.35831203770253467,-0.9326009010250302,1.0,0.0,0.0,0.0,1.0,0.0,0.0,0.0,1.0,-0.0001476399484090507,0.0009279147488996385,-0.0004702062869910152,1.2184696791468346e-07,0.0,0.0,0.0,1.2184696791468346e-07,0.0,0.0,0.0,1.2184696791468346e-07,0.26477955,0.9218251000000013,9.8654899,8.999999999999999e-08,0.0,0.0,0.0,8.999999999999999e-08,0.0,0.0,0.0,8.999999999999999e-08
1729403412.9269433,2317,1729403412,924539520,base_link,-0.03923380978349131,0.018164297488117487,-0.35832482834652185,-0.9325953483998682,1.0,0.0,0.0,0.0,1.0,0.0,0.0,0.0,1.0,0.0005732076824642718,0.00038673155358992506,-0.0007249063928611577,1.2184696791468346e-07,0.0,0.0,0.0,1.2184696791468346e-07,0.0,0.0,0.0,1.2184696791468346e-07,0.2549729,0.9316317500000013,9.87529655,8.999999999999999e-08,0.0,0.0,0.0,8.999999999999999e-08,0.0,0.0,0.0,8.999999999999999e-08
1729403413.026352,2318,1729403413,24531584,base_link,-0.039234578470342625,0.018165252243541815,-0.35834058536486785,-0.9325892430987754,1.0,0.0,0.0,0.0,1.0,0.0,0.0,0.0,1.0,-0.0010205056751146913,0.0012542416807264087,-0.00108106154948473,1.2184696791468346e-07,0.0,0.0,0.0,1.2184696791468346e-07,0.0,0.0,0.0,1.2184696791468346e-07,0.24516625,0.9120184500000013,9.89490985,8.999999999999999e-08,0.0,0.0,0.0,8.999999999999999e-08,0.0,0.0,0.0,8.999999999999999e-08
1729403413.126486,2319,1729403413,124526464,base_link,-0.03924263691011256,0.018190344029508497,-0.3583569329279504,-0.9325821333560393,1.0,0.0,0.0,0.0,1.0,0.0,0.0,0.0,1.0,-0.0007667628233321011,0.0008970739436335862,0.0002818636130541562,1.2184696791468346e-07,0.0,0.0,0.0,1.2184696791468346e-07,0.0,0.0,0.0,1.2184696791468346e-07,0.26477955,0.9316317500000013,9.85568325,8.999999999999999e-08,0.0,0.0,0.0,8.999999999999999e-08,0.0,0.0,0.0,8.999999999999999e-08
1729403413.2266238,2320,1729403413,224524160,base_link,-0.03925342153064239,0.01821104668014316,-0.3583652422981229,-0.9325780824089527,1.0,0.0,0.0,0.0,1.0,0.0,0.0,0.0,1.0,0.00027348549338057637,-0.0006618240149691701,-9.553309064358465e-05,1.2184696791468346e-07,0.0,0.0,0.0,1.2184696791468346e-07,0.0,0.0,0.0,1.2184696791468346e-07,0.24516625,0.9120184500000013,9.8654899,8.999999999999999e-08,0.0,0.0,0.0,8.999999999999999e-08,0.0,0.0,0.0,8.999999999999999e-08
1729403413.3265488,2321,1729403413,324519040,base_link,-0.039246513976428185,0.018244051090141614,-0.3583776759563184,-0.9325729500241073,1.0,0.0,0.0,0.0,1.0,0.0,0.0,0.0,1.0,-0.0007648389437235892,0.0006277337670326232,-0.0012237251503393054,1.2184696791468346e-07,0.0,0.0,0.0,1.2184696791468346e-07,0.0,0.0,0.0,1.2184696791468346e-07,0.2549729,0.9316317500000013,9.85568325,8.999999999999999e-08,0.0,0.0,0.0,8.999999999999999e-08,0.0,0.0,0.0,8.999999999999999e-08
1729403413.4263349,2322,1729403413,424516480,base_link,-0.039241554833596676,0.018270987280974114,-0.35838170373686123,-0.9325710835237628,1.0,0.0,0.0,0.0,1.0,0.0,0.0,0.0,1.0,-2.5278699467889965e-05,0.00021433965594042093,6.147478416096393e-06,1.2184696791468346e-07,0.0,0.0,0.0,1.2184696791468346e-07,0.0,0.0,0.0,1.2184696791468346e-07,0.2549729,0.9120184500000013,9.87529655,8.999999999999999e-08,0.0,0.0,0.0,8.999999999999999e-08,0.0,0.0,0.0,8.999999999999999e-08
1729403413.526209,2323,1729403413,524511360,base_link,-0.03923424692554949,0.018299193810793785,-0.3583899955287814,-0.9325676514221048,1.0,0.0,0.0,0.0,1.0,0.0,0.0,0.0,1.0,0.0006056392448954284,0.00036884803557768475,0.0009847022593021393,1.2184696791468346e-07,0.0,0.0,0.0,1.2184696791468346e-07,0.0,0.0,0.0,1.2184696791468346e-07,0.26477955,0.9120184500000013,9.8654899,8.999999999999999e-08,0.0,0.0,0.0,8.999999999999999e-08,0.0,0.0,0.0,8.999999999999999e-08
1729403413.6264126,2324,1729403413,624506752,base_link,-0.03922563863702035,0.01831314364298505,-0.3583913149996669,-0.9325672326305694,1.0,0.0,0.0,0.0,1.0,0.0,0.0,0.0,1.0,0.00033318670466542244,0.0007691441569477321,0.0007975405897013842,1.2184696791468346e-07,0.0,0.0,0.0,1.2184696791468346e-07,0.0,0.0,0.0,1.2184696791468346e-07,0.26477955,0.9218251000000013,9.87529655,8.999999999999999e-08,0.0,0.0,0.0,8.999999999999999e-08,0.0,0.0,0.0,8.999999999999999e-08
1729403413.7273533,2325,1729403413,724503424,base_link,-0.039255042957568584,0.01831220627777378,-0.35840202120565573,-0.9325618992320781,1.0,0.0,0.0,0.0,1.0,0.0,0.0,0.0,1.0,-0.0008226534118875861,-0.00048580419388599683,0.0009284231928177179,1.2184696791468346e-07,0.0,0.0,0.0,1.2184696791468346e-07,0.0,0.0,0.0,1.2184696791468346e-07,0.26477955,0.9120184500000013,9.8654899,8.999999999999999e-08,0.0,0.0,0.0,8.999999999999999e-08,0.0,0.0,0.0,8.999999999999999e-08
1729403413.8263044,2326,1729403413,824499840,base_link,-0.039294992374052554,0.01828403369925645,-0.35841260672383435,-0.9325567012398943,1.0,0.0,0.0,0.0,1.0,0.0,0.0,0.0,1.0,0.0002317122562089935,3.470852971076972e-05,0.0005599995492957532,1.2184696791468346e-07,0.0,0.0,0.0,1.2184696791468346e-07,0.0,0.0,0.0,1.2184696791468346e-07,0.2549729,0.9218251000000013,9.85568325,8.999999999999999e-08,0.0,0.0,0.0,8.999999999999999e-08,0.0,0.0,0.0,8.999999999999999e-08
1729403413.928599,2327,1729403413,924496512,base_link,-0.039355183476736465,0.018250619697929158,-0.35842586148582567,-0.9325497231956577,1.0,0.0,0.0,0.0,1.0,0.0,0.0,0.0,1.0,0.0006881221779622138,-0.0002659983583725989,-8.49707284942269e-05,1.2184696791468346e-07,0.0,0.0,0.0,1.2184696791468346e-07,0.0,0.0,0.0,1.2184696791468346e-07,0.26477955,0.9316317500000013,9.89490985,8.999999999999999e-08,0.0,0.0,0.0,8.999999999999999e-08,0.0,0.0,0.0,8.999999999999999e-08
1729403414.0281203,2328,1729403414,24492928,base_link,-0.03943978007722318,0.018215230194145438,-0.35843407462086413,-0.9325436843854122,1.0,0.0,0.0,0.0,1.0,0.0,0.0,0.0,1.0,3.1633651815354824e-05,0.00028595438925549377,-0.0009140205220319331,1.2184696791468346e-07,0.0,0.0,0.0,1.2184696791468346e-07,0.0,0.0,0.0,1.2184696791468346e-07,0.26477955,0.9120184500000013,9.8654899,8.999999999999999e-08,0.0,0.0,0.0,8.999999999999999e-08,0.0,0.0,0.0,8.999999999999999e-08
1729403414.1265166,2329,1729403414,124489088,base_link,-0.03947657605231235,0.018210013388351234,-0.3584318214470137,-0.9325430953740197,1.0,0.0,0.0,0.0,1.0,0.0,0.0,0.0,1.0,-0.00046888229553587735,0.00026849814457818866,-7.766608905512842e-05,1.2184696791468346e-07,0.0,0.0,0.0,1.2184696791468346e-07,0.0,0.0,0.0,1.2184696791468346e-07,0.2549729,0.9022118000000012,9.87529655,8.999999999999999e-08,0.0,0.0,0.0,8.999999999999999e-08,0.0,0.0,0.0,8.999999999999999e-08
1729403414.22981,2330,1729403414,224485760,base_link,-0.039471863306718306,0.018203273626643368,-0.3584406518496567,-0.9325400323514066,1.0,0.0,0.0,0.0,1.0,0.0,0.0,0.0,1.0,-0.001184744294732809,-0.00033478118712082494,0.0010094953468069434,1.2184696791468346e-07,0.0,0.0,0.0,1.2184696791468346e-07,0.0,0.0,0.0,1.2184696791468346e-07,0.2549729,0.9218251000000013,9.8654899,8.999999999999999e-08,0.0,0.0,0.0,8.999999999999999e-08,0.0,0.0,0.0,8.999999999999999e-08
1729403414.3273234,2331,1729403414,324482176,base_link,-0.03944255580922319,0.01819087845416452,-0.35844368899021545,-0.9325403468780253,1.0,0.0,0.0,0.0,1.0,0.0,0.0,0.0,1.0,0.00020525629224721342,0.00029181397985666985,-0.0002709557302296162,1.2184696791468346e-07,0.0,0.0,0.0,1.2184696791468346e-07,0.0,0.0,0.0,1.2184696791468346e-07,0.2549729,0.9218251000000013,9.8851032,8.999999999999999e-08,0.0,0.0,0.0,8.999999999999999e-08,0.0,0.0,0.0,8.999999999999999e-08
1729403414.426454,2332,1729403414,424478848,base_link,-0.03942126365122598,0.01818367872426502,-0.3584604125386666,-0.932534959367638,1.0,0.0,0.0,0.0,1.0,0.0,0.0,0.0,1.0,0.0004019404877908528,-0.00038974225753918296,-0.0004226773744449019,1.2184696791468346e-07,0.0,0.0,0.0,1.2184696791468346e-07,0.0,0.0,0.0,1.2184696791468346e-07,0.2745862,0.9022118000000012,9.8654899,8.999999999999999e-08,0.0,0.0,0.0,8.999999999999999e-08,0.0,0.0,0.0,8.999999999999999e-08
1729403414.526575,2333,1729403414,524475776,base_link,-0.03938368168624469,0.018163757321581715,-0.3584767768903115,-0.9325306450552351,1.0,0.0,0.0,0.0,1.0,0.0,0.0,0.0,1.0,-0.0004149886080995202,-0.0004124654224142431,0.0007096991175785661,1.2184696791468346e-07,0.0,0.0,0.0,1.2184696791468346e-07,0.0,0.0,0.0,1.2184696791468346e-07,0.24516625,0.9120184500000013,9.8654899,8.999999999999999e-08,0.0,0.0,0.0,8.999999999999999e-08,0.0,0.0,0.0,8.999999999999999e-08
1729403414.6264431,2334,1729403414,624472704,base_link,-0.03937454657298703,0.018135334077114422,-0.35848996714397785,-0.9325265134017331,1.0,0.0,0.0,0.0,1.0,0.0,0.0,0.0,1.0,0.0009068181971088052,0.0007933009765110911,0.0008195923874154686,1.2184696791468346e-07,0.0,0.0,0.0,1.2184696791468346e-07,0.0,0.0,0.0,1.2184696791468346e-07,0.2549729,0.9316317500000013,9.87529655,8.999999999999999e-08,0.0,0.0,0.0,8.999999999999999e-08,0.0,0.0,0.0,8.999999999999999e-08
1729403414.728474,2335,1729403414,724468608,base_link,-0.0393785554881852,0.018152170774732884,-0.3585188442201551,-0.9325149148420486,1.0,0.0,0.0,0.0,1.0,0.0,0.0,0.0,1.0,-0.0007828973466530442,0.0006355506484396756,0.000306974776322022,1.2184696791468346e-07,0.0,0.0,0.0,1.2184696791468346e-07,0.0,0.0,0.0,1.2184696791468346e-07,0.2549729,0.9120184500000013,9.83606995,8.999999999999999e-08,0.0,0.0,0.0,8.999999999999999e-08,0.0,0.0,0.0,8.999999999999999e-08
1729403414.8265378,2336,1729403414,824464512,base_link,-0.03938246997285239,0.01816203120601681,-0.3585309227623879,-0.9325099136762351,1.0,0.0,0.0,0.0,1.0,0.0,0.0,0.0,1.0,-0.0009444222669117153,-0.0003883078170474618,0.00042146869236603385,1.2184696791468346e-07,0.0,0.0,0.0,1.2184696791468346e-07,0.0,0.0,0.0,1.2184696791468346e-07,0.26477955,0.9120184500000013,9.83606995,8.999999999999999e-08,0.0,0.0,0.0,8.999999999999999e-08,0.0,0.0,0.0,8.999999999999999e-08
1729403414.927161,2337,1729403414,924463232,base_link,-0.03938512468293737,0.018163095627949336,-0.3585378305701507,-0.9325071248848286,1.0,0.0,0.0,0.0,1.0,0.0,0.0,0.0,1.0,-0.00023786335077602416,0.0007745213806629182,0.0009861523285508156,1.2184696791468346e-07,0.0,0.0,0.0,1.2184696791468346e-07,0.0,0.0,0.0,1.2184696791468346e-07,0.26477955,0.9218251000000013,9.87529655,8.999999999999999e-08,0.0,0.0,0.0,8.999999999999999e-08,0.0,0.0,0.0,8.999999999999999e-08
1729403415.0283408,2338,1729403415,24458880,base_link,-0.039376350950080664,0.018177086222873867,-0.3585454305517865,-0.9325043006617914,1.0,0.0,0.0,0.0,1.0,0.0,0.0,0.0,1.0,0.00018093865946866572,0.0012952197575941682,0.00038457184564322217,1.2184696791468346e-07,0.0,0.0,0.0,1.2184696791468346e-07,0.0,0.0,0.0,1.2184696791468346e-07,0.2549729,0.9218251000000013,9.85568325,8.999999999999999e-08,0.0,0.0,0.0,8.999999999999999e-08,0.0,0.0,0.0,8.999999999999999e-08
1729403415.1294708,2339,1729403415,124454784,base_link,-0.039373785654006156,0.01814695799815456,-0.3585717343363195,-0.9324948816233415,1.0,0.0,0.0,0.0,1.0,0.0,0.0,0.0,1.0,0.0009445428149774671,-0.00017045853019226342,1.20147888083013e-06,1.2184696791468346e-07,0.0,0.0,0.0,1.2184696791468346e-07,0.0,0.0,0.0,1.2184696791468346e-07,0.24516625,0.9316317500000013,9.85568325,8.999999999999999e-08,0.0,0.0,0.0,8.999999999999999e-08,0.0,0.0,0.0,8.999999999999999e-08
1729403415.2289405,2340,1729403415,224453504,base_link,-0.03941138434632276,0.018101338079572055,-0.3585962323889268,-0.9324847593714884,1.0,0.0,0.0,0.0,1.0,0.0,0.0,0.0,1.0,0.0002206246426794678,0.0004211649938952178,0.00020098326785955573,1.2184696791468346e-07,0.0,0.0,0.0,1.2184696791468346e-07,0.0,0.0,0.0,1.2184696791468346e-07,0.2353596,0.9120184500000013,9.8851032,8.999999999999999e-08,0.0,0.0,0.0,8.999999999999999e-08,0.0,0.0,0.0,8.999999999999999e-08
1729403415.3311791,2341,1729403415,324449408,base_link,-0.03943465309220461,0.018092423315862,-0.3586048820429876,-0.9324806222806948,1.0,0.0,0.0,0.0,1.0,0.0,0.0,0.0,1.0,0.0007140840752981603,0.00015385939332190885,-0.001242165919393301,1.2184696791468346e-07,0.0,0.0,0.0,1.2184696791468346e-07,0.0,0.0,0.0,1.2184696791468346e-07,0.26477955,0.9120184500000013,9.85568325,8.999999999999999e-08,0.0,0.0,0.0,8.999999999999999e-08,0.0,0.0,0.0,8.999999999999999e-08
1729403415.4293802,2342,1729403415,424445568,base_link,-0.03944988770418898,0.018078421094743245,-0.35859929114068323,-0.9324823995359093,1.0,0.0,0.0,0.0,1.0,0.0,0.0,0.0,1.0,0.0006708895089104772,0.0011334790615364907,-0.0010324481409043076,1.2184696791468346e-07,0.0,0.0,0.0,1.2184696791468346e-07,0.0,0.0,0.0,1.2184696791468346e-07,0.2549729,0.9316317500000013,9.8654899,8.999999999999999e-08,0.0,0.0,0.0,8.999999999999999e-08,0.0,0.0,0.0,8.999999999999999e-08
1729403415.5269723,2343,1729403415,524442752,base_link,-0.039480688913977054,0.01808752455982695,-0.35858625175677783,-0.9324859337862423,1.0,0.0,0.0,0.0,1.0,0.0,0.0,0.0,1.0,0.0020044187549501657,-0.0009402535506524145,0.0008430519956164063,1.2184696791468346e-07,0.0,0.0,0.0,1.2184696791468346e-07,0.0,0.0,0.0,1.2184696791468346e-07,0.26477955,0.9120184500000013,9.83606995,8.999999999999999e-08,0.0,0.0,0.0,8.999999999999999e-08,0.0,0.0,0.0,8.999999999999999e-08
1729403415.626654,2344,1729403415,624437376,base_link,-0.03949421621322303,0.01808914886096613,-0.3585780766557433,-0.9324884731303956,1.0,0.0,0.0,0.0,1.0,0.0,0.0,0.0,1.0,-0.0001965556584764272,0.00021937376004643738,-8.290298865177006e-07,1.2184696791468346e-07,0.0,0.0,0.0,1.2184696791468346e-07,0.0,0.0,0.0,1.2184696791468346e-07,0.26477955,0.9120184500000013,9.91452315,8.999999999999999e-08,0.0,0.0,0.0,8.999999999999999e-08,0.0,0.0,0.0,8.999999999999999e-08
1729403415.7278695,2345,1729403415,724432256,base_link,-0.039508523397882245,0.018102061091864942,-0.3585732246278258,-0.9324894822694507,1.0,0.0,0.0,0.0,1.0,0.0,0.0,0.0,1.0,0.0008214782574214041,9.831693023443217e-05,-0.00039166666101664305,1.2184696791468346e-07,0.0,0.0,0.0,1.2184696791468346e-07,0.0,0.0,0.0,1.2184696791468346e-07,0.2549729,0.9316317500000013,9.85568325,8.999999999999999e-08,0.0,0.0,0.0,8.999999999999999e-08,0.0,0.0,0.0,8.999999999999999e-08
1729403415.8268487,2346,1729403415,824427904,base_link,-0.039500229457850894,0.018128378495579453,-0.3585873758586049,-0.9324838806331923,1.0,0.0,0.0,0.0,1.0,0.0,0.0,0.0,1.0,-0.0007192419725470245,-0.00020024461264256372,0.0014146349858492613,1.2184696791468346e-07,0.0,0.0,0.0,1.2184696791468346e-07,0.0,0.0,0.0,1.2184696791468346e-07,0.26477955,0.9218251000000013,9.87529655,8.999999999999999e-08,0.0,0.0,0.0,8.999999999999999e-08,0.0,0.0,0.0,8.999999999999999e-08
1729403415.9266286,2347,1729403415,924423296,base_link,-0.03951034721795784,0.018128771635127817,-0.35860231420208954,-0.9324776996532536,1.0,0.0,0.0,0.0,1.0,0.0,0.0,0.0,1.0,0.0007291497313417494,0.00032771890982985497,0.00017836398910731074,1.2184696791468346e-07,0.0,0.0,0.0,1.2184696791468346e-07,0.0,0.0,0.0,1.2184696791468346e-07,0.2549729,0.9218251000000013,9.87529655,8.999999999999999e-08,0.0,0.0,0.0,8.999999999999999e-08,0.0,0.0,0.0,8.999999999999999e-08
1729403416.026689,2348,1729403416,24417920,base_link,-0.03953219876273471,0.018120628390549814,-0.3586174417067482,-0.9324711140788341,1.0,0.0,0.0,0.0,1.0,0.0,0.0,0.0,1.0,0.002424173755571246,-0.0005578264244832098,2.7344023692421683e-05,1.2184696791468346e-07,0.0,0.0,0.0,1.2184696791468346e-07,0.0,0.0,0.0,1.2184696791468346e-07,0.26477955,0.9218251000000013,9.85568325,8.999999999999999e-08,0.0,0.0,0.0,8.999999999999999e-08,0.0,0.0,0.0,8.999999999999999e-08
1729403416.126653,2349,1729403416,124413824,base_link,-0.03955476435533812,0.018114226617112802,-0.358626349918665,-0.9324668554725538,1.0,0.0,0.0,0.0,1.0,0.0,0.0,0.0,1.0,9.57822339842096e-05,0.00028812064556404954,0.0003012069500982761,1.2184696791468346e-07,0.0,0.0,0.0,1.2184696791468346e-07,0.0,0.0,0.0,1.2184696791468346e-07,0.2549729,0.9120184500000013,9.8851032,8.999999999999999e-08,0.0,0.0,0.0,8.999999999999999e-08,0.0,0.0,0.0,8.999999999999999e-08
1729403416.2269573,2350,1729403416,224413824,base_link,-0.03955507086565655,0.01810442755608912,-0.3586571628176272,-0.9324551815670763,1.0,0.0,0.0,0.0,1.0,0.0,0.0,0.0,1.0,5.263898492557928e-05,-0.00027107537607662374,0.0005842047394253314,1.2184696791468346e-07,0.0,0.0,0.0,1.2184696791468346e-07,0.0,0.0,0.0,1.2184696791468346e-07,0.26477955,0.9120184500000013,9.87529655,8.999999999999999e-08,0.0,0.0,0.0,8.999999999999999e-08,0.0,0.0,0.0,8.999999999999999e-08
1729403416.3281014,2351,1729403416,324409728,base_link,-0.03954537884821948,0.01809245803419089,-0.35867366219054275,-0.9324494785375004,1.0,0.0,0.0,0.0,1.0,0.0,0.0,0.0,1.0,-0.00012678677740041167,0.0004484841774683447,0.0007996378699317573,1.2184696791468346e-07,0.0,0.0,0.0,1.2184696791468346e-07,0.0,0.0,0.0,1.2184696791468346e-07,0.26477955,0.9316317500000013,9.85568325,8.999999999999999e-08,0.0,0.0,0.0,8.999999999999999e-08,0.0,0.0,0.0,8.999999999999999e-08
1729403416.4268408,2352,1729403416,424405888,base_link,-0.039514644432797376,0.018060820916976295,-0.35867328397428333,-0.9324515402884259,1.0,0.0,0.0,0.0,1.0,0.0,0.0,0.0,1.0,-0.00037164916284382343,0.00030268169939517975,-9.623828373150904e-05,1.2184696791468346e-07,0.0,0.0,0.0,1.2184696791468346e-07,0.0,0.0,0.0,1.2184696791468346e-07,0.2549729,0.9316317500000013,9.8654899,8.999999999999999e-08,0.0,0.0,0.0,8.999999999999999e-08,0.0,0.0,0.0,8.999999999999999e-08
1729403416.5257282,2353,1729403416,524401024,base_link,-0.039461592834404334,0.01807756989054431,-0.35870084220826487,-0.9324428614971029,1.0,0.0,0.0,0.0,1.0,0.0,0.0,0.0,1.0,9.044332546181977e-05,-0.0004398573655635118,0.0005919008399359882,1.2184696791468346e-07,0.0,0.0,0.0,1.2184696791468346e-07,0.0,0.0,0.0,1.2184696791468346e-07,0.2549729,0.9218251000000013,9.87529655,8.999999999999999e-08,0.0,0.0,0.0,8.999999999999999e-08,0.0,0.0,0.0,8.999999999999999e-08
1729403416.6258743,2354,1729403416,624397440,base_link,-0.039419610954492736,0.018101270408885352,-0.3587187181734929,-0.9324373005804449,1.0,0.0,0.0,0.0,1.0,0.0,0.0,0.0,1.0,-0.00012715757475234568,-1.919042915687897e-05,-5.079824404674582e-05,1.2184696791468346e-07,0.0,0.0,0.0,1.2184696791468346e-07,0.0,0.0,0.0,1.2184696791468346e-07,0.24516625,0.9316317500000013,9.87529655,8.999999999999999e-08,0.0,0.0,0.0,8.999999999999999e-08,0.0,0.0,0.0,8.999999999999999e-08
1729403416.727094,2355,1729403416,724394112,base_link,-0.03939567348455206,0.018110889711207334,-0.358724231610784,-0.9324360043669591,1.0,0.0,0.0,0.0,1.0,0.0,0.0,0.0,1.0,-0.00019792304374277592,-0.000344293046509847,0.0002736508613452316,1.2184696791468346e-07,0.0,0.0,0.0,1.2184696791468346e-07,0.0,0.0,0.0,1.2184696791468346e-07,0.26477955,0.9120184500000013,9.8458766,8.999999999999999e-08,0.0,0.0,0.0,8.999999999999999e-08,0.0,0.0,0.0,8.999999999999999e-08
1729403416.8258562,2356,1729403416,824390016,base_link,-0.039391806816022036,0.01812411391934504,-0.3587349112504559,-0.9324318020641162,1.0,0.0,0.0,0.0,1.0,0.0,0.0,0.0,1.0,-0.00022355715918820351,-0.00036092006484977896,0.000447567756054923,1.2184696791468346e-07,0.0,0.0,0.0,1.2184696791468346e-07,0.0,0.0,0.0,1.2184696791468346e-07,0.26477955,0.9218251000000013,9.9047165,8.999999999999999e-08,0.0,0.0,0.0,8.999999999999999e-08,0.0,0.0,0.0,8.999999999999999e-08
1729403416.9272811,2357,1729403416,924385152,base_link,-0.03939497066535266,0.018114475126110273,-0.3587679590208361,-0.9324191405463559,1.0,0.0,0.0,0.0,1.0,0.0,0.0,0.0,1.0,-0.0008185468032024801,-0.00024887415929697443,0.0010476908646523952,1.2184696791468346e-07,0.0,0.0,0.0,1.2184696791468346e-07,0.0,0.0,0.0,1.2184696791468346e-07,0.26477955,0.9120184500000013,9.87529655,8.999999999999999e-08,0.0,0.0,0.0,8.999999999999999e-08,0.0,0.0,0.0,8.999999999999999e-08
1729403417.0259798,2358,1729403417,24377216,base_link,-0.03940910216780125,0.018100009748556647,-0.35876200610840286,-0.9324211147794242,1.0,0.0,0.0,0.0,1.0,0.0,0.0,0.0,1.0,0.0011628610081970692,-0.00015544108464382586,0.0002975615207105875,1.2184696791468346e-07,0.0,0.0,0.0,1.2184696791468346e-07,0.0,0.0,0.0,1.2184696791468346e-07,0.26477955,0.9218251000000013,9.8654899,8.999999999999999e-08,0.0,0.0,0.0,8.999999999999999e-08,0.0,0.0,0.0,8.999999999999999e-08
1729403417.1260333,2359,1729403417,124372608,base_link,-0.03941700077042765,0.018081200432297787,-0.35876425880426255,-0.9324202790833217,1.0,0.0,0.0,0.0,1.0,0.0,0.0,0.0,1.0,-7.55818618927151e-05,0.001265346771106124,-0.00031361472792923467,1.2184696791468346e-07,0.0,0.0,0.0,1.2184696791468346e-07,0.0,0.0,0.0,1.2184696791468346e-07,0.2745862,0.9316317500000013,9.8851032,8.999999999999999e-08,0.0,0.0,0.0,8.999999999999999e-08,0.0,0.0,0.0,8.999999999999999e-08
1729403417.2335017,2360,1729403417,224368000,base_link,-0.039421163168900465,0.018053852767498747,-0.3587697325457641,-0.9324185268985711,1.0,0.0,0.0,0.0,1.0,0.0,0.0,0.0,1.0,-0.0007273444789461792,0.00010620715329423555,0.0006263387040235102,1.2184696791468346e-07,0.0,0.0,0.0,1.2184696791468346e-07,0.0,0.0,0.0,1.2184696791468346e-07,0.26477955,0.9120184500000013,9.87529655,8.999999999999999e-08,0.0,0.0,0.0,8.999999999999999e-08,0.0,0.0,0.0,8.999999999999999e-08
1729403417.326821,2361,1729403417,324361856,base_link,-0.03944739605250798,0.018053616892305793,-0.3587938433488464,-0.9324081444500288,1.0,0.0,0.0,0.0,1.0,0.0,0.0,0.0,1.0,0.0005882208934053779,-0.00011892523616552349,0.00036748789716511965,1.2184696791468346e-07,0.0,0.0,0.0,1.2184696791468346e-07,0.0,0.0,0.0,1.2184696791468346e-07,0.2549729,0.9316317500000013,9.85568325,8.999999999999999e-08,0.0,0.0,0.0,8.999999999999999e-08,0.0,0.0,0.0,8.999999999999999e-08
1729403417.428227,2362,1729403417,424358272,base_link,-0.03946512776128276,0.01805918249949945,-0.35880789406654384,-0.9324018794349178,1.0,0.0,0.0,0.0,1.0,0.0,0.0,0.0,1.0,-0.0002046585432253778,2.83580811810677e-05,-0.0022467034868896008,1.2184696791468346e-07,0.0,0.0,0.0,1.2184696791468346e-07,0.0,0.0,0.0,1.2184696791468346e-07,0.2745862,0.9218251000000013,9.8851032,8.999999999999999e-08,0.0,0.0,0.0,8.999999999999999e-08,0.0,0.0,0.0,8.999999999999999e-08
1729403417.5268776,2363,1729403417,524353920,base_link,-0.03947985369714503,0.018056390803610406,-0.3588333538564289,-0.9323915122218489,1.0,0.0,0.0,0.0,1.0,0.0,0.0,0.0,1.0,-0.000500932103022933,-0.00034844694891944533,-0.0004761781892739236,1.2184696791468346e-07,0.0,0.0,0.0,1.2184696791468346e-07,0.0,0.0,0.0,1.2184696791468346e-07,0.2745862,0.9022118000000012,9.8458766,8.999999999999999e-08,0.0,0.0,0.0,8.999999999999999e-08,0.0,0.0,0.0,8.999999999999999e-08
1729403417.62664,2364,1729403417,624349056,base_link,-0.039497421188178984,0.018055258196165637,-0.35883108100682454,-0.9323916648460704,1.0,0.0,0.0,0.0,1.0,0.0,0.0,0.0,1.0,0.001990122254937887,-0.0005570088396780193,0.0002678676100913436,1.2184696791468346e-07,0.0,0.0,0.0,1.2184696791468346e-07,0.0,0.0,0.0,1.2184696791468346e-07,0.2549729,0.9316317500000013,9.87529655,8.999999999999999e-08,0.0,0.0,0.0,8.999999999999999e-08,0.0,0.0,0.0,8.999999999999999e-08
1729403417.7256842,2365,1729403417,724345728,base_link,-0.03950143477983361,0.01800258639957228,-0.35880882192535424,-0.9324010793868696,1.0,0.0,0.0,0.0,1.0,0.0,0.0,0.0,1.0,0.0002931408816948533,0.0009061006712727249,0.0003163955989293753,1.2184696791468346e-07,0.0,0.0,0.0,1.2184696791468346e-07,0.0,0.0,0.0,1.2184696791468346e-07,0.2745862,0.9120184500000013,9.8654899,8.999999999999999e-08,0.0,0.0,0.0,8.999999999999999e-08,0.0,0.0,0.0,8.999999999999999e-08
1729403417.8263695,2366,1729403417,824342400,base_link,-0.039524654361278534,0.017967632273530366,-0.35878906471017835,-0.9324083724058359,1.0,0.0,0.0,0.0,1.0,0.0,0.0,0.0,1.0,0.00029411911964416504,-0.0006467342609539628,2.4208566173911173e-05,1.2184696791468346e-07,0.0,0.0,0.0,1.2184696791468346e-07,0.0,0.0,0.0,1.2184696791468346e-07,0.2549729,0.9218251000000013,9.85568325,8.999999999999999e-08,0.0,0.0,0.0,8.999999999999999e-08,0.0,0.0,0.0,8.999999999999999e-08
1729403417.9256809,2367,1729403417,924339328,base_link,-0.03951821526842674,0.017961124803733616,-0.3587836842573821,-0.9324108410826647,1.0,0.0,0.0,0.0,1.0,0.0,0.0,0.0,1.0,0.00046197837218642235,0.00014655443374067545,-5.26959775015712e-05,1.2184696791468346e-07,0.0,0.0,0.0,1.2184696791468346e-07,0.0,0.0,0.0,1.2184696791468346e-07,0.24516625,0.9316317500000013,9.87529655,8.999999999999999e-08,0.0,0.0,0.0,8.999999999999999e-08,0.0,0.0,0.0,8.999999999999999e-08
1729403418.0259178,2368,1729403418,24331392,base_link,-0.03951386721133415,0.017972354849777893,-0.35881328716407973,-0.9323994174781891,1.0,0.0,0.0,0.0,1.0,0.0,0.0,0.0,1.0,0.0002208682126365602,-0.000417923438362777,0.0015577947488054633,1.2184696791468346e-07,0.0,0.0,0.0,1.2184696791468346e-07,0.0,0.0,0.0,1.2184696791468346e-07,0.26477955,0.9218251000000013,9.87529655,8.999999999999999e-08,0.0,0.0,0.0,8.999999999999999e-08,0.0,0.0,0.0,8.999999999999999e-08
1729403418.1261199,2369,1729403418,124327040,base_link,-0.03947527244180361,0.017960300569667548,-0.3588283970040726,-0.9323954697297602,1.0,0.0,0.0,0.0,1.0,0.0,0.0,0.0,1.0,-0.00021452335931826383,0.00022234269999898957,-0.0010222455020993948,1.2184696791468346e-07,0.0,0.0,0.0,1.2184696791468346e-07,0.0,0.0,0.0,1.2184696791468346e-07,0.26477955,0.9316317500000013,9.85568325,8.999999999999999e-08,0.0,0.0,0.0,8.999999999999999e-08,0.0,0.0,0.0,8.999999999999999e-08
1729403418.2263868,2370,1729403418,224322688,base_link,-0.03944469685244926,0.01793759854435442,-0.3588492289750927,-0.9323891833953575,1.0,0.0,0.0,0.0,1.0,0.0,0.0,0.0,1.0,7.221584382932633e-06,-2.075137672363764e-05,0.001355677843093872,1.2184696791468346e-07,0.0,0.0,0.0,1.2184696791468346e-07,0.0,0.0,0.0,1.2184696791468346e-07,0.2549729,0.9120184500000013,9.8458766,8.999999999999999e-08,0.0,0.0,0.0,8.999999999999999e-08,0.0,0.0,0.0,8.999999999999999e-08
1729403418.3269286,2371,1729403418,324318336,base_link,-0.03942409473407493,0.01792662732982822,-0.35887304485238924,-0.9323810993715773,1.0,0.0,0.0,0.0,1.0,0.0,0.0,0.0,1.0,0.00010862487397389486,0.00024286325788125407,0.0008315563900396228,1.2184696791468346e-07,0.0,0.0,0.0,1.2184696791468346e-07,0.0,0.0,0.0,1.2184696791468346e-07,0.26477955,0.9218251000000013,9.8851032,8.999999999999999e-08,0.0,0.0,0.0,8.999999999999999e-08,0.0,0.0,0.0,8.999999999999999e-08
1729403418.4261107,2372,1729403418,424312704,base_link,-0.039425382891874826,0.017929609325428544,-0.35889041433051105,-0.9323743018739528,1.0,0.0,0.0,0.0,1.0,0.0,0.0,0.0,1.0,0.0001855925511335954,-0.00043780813575722266,0.0008887224248610437,1.2184696791468346e-07,0.0,0.0,0.0,1.2184696791468346e-07,0.0,0.0,0.0,1.2184696791468346e-07,0.2745862,0.9218251000000013,9.8654899,8.999999999999999e-08,0.0,0.0,0.0,8.999999999999999e-08,0.0,0.0,0.0,8.999999999999999e-08
1729403418.5278537,2373,1729403418,524305792,base_link,-0.03943904981909343,0.017946559555818704,-0.358893755659679,-0.9323721116045713,1.0,0.0,0.0,0.0,1.0,0.0,0.0,0.0,1.0,0.0007183656562119722,-0.00018230837304145084,0.0011225194903090596,1.2184696791468346e-07,0.0,0.0,0.0,1.2184696791468346e-07,0.0,0.0,0.0,1.2184696791468346e-07,0.2549729,0.9218251000000013,9.85568325,8.999999999999999e-08,0.0,0.0,0.0,8.999999999999999e-08,0.0,0.0,0.0,8.999999999999999e-08
1729403418.6260574,2374,1729403418,624303232,base_link,-0.03946495773545225,0.01794691771927065,-0.35892119617826973,-0.9323604454229473,1.0,0.0,0.0,0.0,1.0,0.0,0.0,0.0,1.0,0.0001075875261449255,0.00045539028360508393,0.0007461195345968007,1.2184696791468346e-07,0.0,0.0,0.0,1.2184696791468346e-07,0.0,0.0,0.0,1.2184696791468346e-07,0.2353596,0.9218251000000013,9.89490985,8.999999999999999e-08,0.0,0.0,0.0,8.999999999999999e-08,0.0,0.0,0.0,8.999999999999999e-08
1729403418.7263114,2375,1729403418,724298880,base_link,-0.03947027386029023,0.017962342976932853,-0.35894441971213886,-0.9323509828780623,1.0,0.0,0.0,0.0,1.0,0.0,0.0,0.0,1.0,0.0009209067793563008,-0.00028904693317599584,0.0007191742770373821,1.2184696791468346e-07,0.0,0.0,0.0,1.2184696791468346e-07,0.0,0.0,0.0,1.2184696791468346e-07,0.2353596,0.9218251000000013,9.8654899,8.999999999999999e-08,0.0,0.0,0.0,8.999999999999999e-08,0.0,0.0,0.0,8.999999999999999e-08
1729403418.8260942,2376,1729403418,824294528,base_link,-0.039476775456127045,0.017963495244936213,-0.358970837604803,-0.9323405143977592,1.0,0.0,0.0,0.0,1.0,0.0,0.0,0.0,1.0,0.000751256535295397,0.0012548043159767985,0.0006989422254264354,1.2184696791468346e-07,0.0,0.0,0.0,1.2184696791468346e-07,0.0,0.0,0.0,1.2184696791468346e-07,0.2745862,0.9316317500000013,9.8654899,8.999999999999999e-08,0.0,0.0,0.0,8.999999999999999e-08,0.0,0.0,0.0,8.999999999999999e-08
1729403418.926057,2377,1729403418,924290176,base_link,-0.039464947279620036,0.01799607508540039,-0.35900455710655066,-0.9323274034342588,1.0,0.0,0.0,0.0,1.0,0.0,0.0,0.0,1.0,-0.0003247074200771749,-0.0007311507361009717,0.0002978820702992381,1.2184696791468346e-07,0.0,0.0,0.0,1.2184696791468346e-07,0.0,0.0,0.0,1.2184696791468346e-07,0.26477955,0.9022118000000012,9.8654899,8.999999999999999e-08,0.0,0.0,0.0,8.999999999999999e-08,0.0,0.0,0.0,8.999999999999999e-08
1729403419.0262,2378,1729403419,24286080,base_link,-0.03945731718919516,0.018006883277491573,-0.3590428561992732,-0.9323127692395563,1.0,0.0,0.0,0.0,1.0,0.0,0.0,0.0,1.0,0.0007847617380321026,-0.0006851929938420651,0.0017138750990852714,1.2184696791468346e-07,0.0,0.0,0.0,1.2184696791468346e-07,0.0,0.0,0.0,1.2184696791468346e-07,0.2549729,0.9218251000000013,9.85568325,8.999999999999999e-08,0.0,0.0,0.0,8.999999999999999e-08,0.0,0.0,0.0,8.999999999999999e-08
1729403419.1262288,2379,1729403419,124283264,base_link,-0.03943357956184392,0.017994418609108106,-0.3590782801585266,-0.9323003713504863,1.0,0.0,0.0,0.0,1.0,0.0,0.0,0.0,1.0,0.0009012960363179445,-0.00019301738939248015,0.0009009154164232314,1.2184696791468346e-07,0.0,0.0,0.0,1.2184696791468346e-07,0.0,0.0,0.0,1.2184696791468346e-07,0.26477955,0.9120184500000013,9.8851032,8.999999999999999e-08,0.0,0.0,0.0,8.999999999999999e-08,0.0,0.0,0.0,8.999999999999999e-08
1729403419.226686,2380,1729403419,224280960,base_link,-0.03941061698720631,0.017967297965372074,-0.3590964377998528,-0.9322948717181532,1.0,0.0,0.0,0.0,1.0,0.0,0.0,0.0,1.0,-0.0003740478423424065,-0.00025353999808430677,-0.0006100296159274876,1.2184696791468346e-07,0.0,0.0,0.0,1.2184696791468346e-07,0.0,0.0,0.0,1.2184696791468346e-07,0.2549729,0.9218251000000013,9.8654899,8.999999999999999e-08,0.0,0.0,0.0,8.999999999999999e-08,0.0,0.0,0.0,8.999999999999999e-08
1729403419.3263628,2381,1729403419,324275584,base_link,-0.039385897828894685,0.017953932298422872,-0.35912510725573993,-0.9322851305828003,1.0,0.0,0.0,0.0,1.0,0.0,0.0,0.0,1.0,-0.0012432578951120377,0.00043826812179759156,0.0010971288429573178,1.2184696791468346e-07,0.0,0.0,0.0,1.2184696791468346e-07,0.0,0.0,0.0,1.2184696791468346e-07,0.2745862,0.9316317500000013,9.87529655,8.999999999999999e-08,0.0,0.0,0.0,8.999999999999999e-08,0.0,0.0,0.0,8.999999999999999e-08
1729403419.4261844,2382,1729403419,424273280,base_link,-0.03941197393143828,0.017963543013847727,-0.35913041177543703,-0.9322818000858015,1.0,0.0,0.0,0.0,1.0,0.0,0.0,0.0,1.0,-0.000748129328712821,-3.066078716074116e-05,3.341079718666152e-05,1.2184696791468346e-07,0.0,0.0,0.0,1.2184696791468346e-07,0.0,0.0,0.0,1.2184696791468346e-07,0.24516625,0.9120184500000013,9.87529655,8.999999999999999e-08,0.0,0.0,0.0,8.999999999999999e-08,0.0,0.0,0.0,8.999999999999999e-08
1729403419.526892,2383,1729403419,524269184,base_link,-0.039443421141691366,0.017983135005240097,-0.3591465223358235,-0.9322738861933795,1.0,0.0,0.0,0.0,1.0,0.0,0.0,0.0,1.0,0.001289507606998086,-0.00036670643021352584,0.0005709597608074546,1.2184696791468346e-07,0.0,0.0,0.0,1.2184696791468346e-07,0.0,0.0,0.0,1.2184696791468346e-07,0.2549729,0.9316317500000013,9.8851032,8.999999999999999e-08,0.0,0.0,0.0,8.999999999999999e-08,0.0,0.0,0.0,8.999999999999999e-08
1729403419.6262047,2384,1729403419,624264832,base_link,-0.03948397949755039,0.01799744748139897,-0.3591713493039025,-0.9322623284711258,1.0,0.0,0.0,0.0,1.0,0.0,0.0,0.0,1.0,0.00021703321544919163,-0.00022037257440388197,0.00037858120049349964,1.2184696791468346e-07,0.0,0.0,0.0,1.2184696791468346e-07,0.0,0.0,0.0,1.2184696791468346e-07,0.24516625,0.9316317500000013,9.87529655,8.999999999999999e-08,0.0,0.0,0.0,8.999999999999999e-08,0.0,0.0,0.0,8.999999999999999e-08
1729403419.726448,2385,1729403419,724260736,base_link,-0.039498957245717656,0.018015193458349146,-0.35919834309425996,-0.9322509509244266,1.0,0.0,0.0,0.0,1.0,0.0,0.0,0.0,1.0,-6.196266622282565e-05,5.6654611398698715e-05,-0.0003874818212352693,1.2184696791468346e-07,0.0,0.0,0.0,1.2184696791468346e-07,0.0,0.0,0.0,1.2184696791468346e-07,0.2745862,0.9218251000000013,9.85568325,8.999999999999999e-08,0.0,0.0,0.0,8.999999999999999e-08,0.0,0.0,0.0,8.999999999999999e-08
1729403419.8293364,2386,1729403419,824255360,base_link,-0.03951277293419766,0.018024078309118605,-0.3592322806393821,-0.9322371167909941,1.0,0.0,0.0,0.0,1.0,0.0,0.0,0.0,1.0,-8.536737004760653e-05,-0.0010384481865912674,0.0013072158908471467,1.2184696791468346e-07,0.0,0.0,0.0,1.2184696791468346e-07,0.0,0.0,0.0,1.2184696791468346e-07,0.2549729,0.9218251000000013,9.85568325,8.999999999999999e-08,0.0,0.0,0.0,8.999999999999999e-08,0.0,0.0,0.0,8.999999999999999e-08
1729403419.9259932,2387,1729403419,924248448,base_link,-0.0395442642007218,0.018047035462370808,-0.35924723154228894,-0.9322295759677679,1.0,0.0,0.0,0.0,1.0,0.0,0.0,0.0,1.0,-0.000908692367374897,-1.3296026736497738e-05,0.0011435160413384438,1.2184696791468346e-07,0.0,0.0,0.0,1.2184696791468346e-07,0.0,0.0,0.0,1.2184696791468346e-07,0.26477955,0.9316317500000013,9.8654899,8.999999999999999e-08,0.0,0.0,0.0,8.999999999999999e-08,0.0,0.0,0.0,8.999999999999999e-08
1729403420.0262067,2388,1729403420,24243328,base_link,-0.03958149984670679,0.01804178252470186,-0.35923623325589893,-0.9322323356703144,1.0,0.0,0.0,0.0,1.0,0.0,0.0,0.0,1.0,0.0005076074739918113,0.00011234771227464085,0.0004797900328412652,1.2184696791468346e-07,0.0,0.0,0.0,1.2184696791468346e-07,0.0,0.0,0.0,1.2184696791468346e-07,0.24516625,0.9218251000000013,9.8654899,8.999999999999999e-08,0.0,0.0,0.0,8.999999999999999e-08,0.0,0.0,0.0,8.999999999999999e-08
1729403420.126242,2389,1729403420,124239744,base_link,-0.03958605002753171,0.0180304396444878,-0.3592418400110713,-0.9322302013316798,1.0,0.0,0.0,0.0,1.0,0.0,0.0,0.0,1.0,0.0006377599784173071,0.0004767239734064788,0.0006500235758721827,1.2184696791468346e-07,0.0,0.0,0.0,1.2184696791468346e-07,0.0,0.0,0.0,1.2184696791468346e-07,0.2549729,0.9120184500000013,9.8654899,8.999999999999999e-08,0.0,0.0,0.0,8.999999999999999e-08,0.0,0.0,0.0,8.999999999999999e-08
1729403420.227005,2390,1729403420,224237952,base_link,-0.03959298198394269,0.018017138988614713,-0.3592385089862019,-0.932231447732619,1.0,0.0,0.0,0.0,1.0,0.0,0.0,0.0,1.0,0.0011233602417632937,-0.000436763046309352,-0.0005625743069685996,1.2184696791468346e-07,0.0,0.0,0.0,1.2184696791468346e-07,0.0,0.0,0.0,1.2184696791468346e-07,0.2745862,0.9120184500000013,9.8654899,8.999999999999999e-08,0.0,0.0,0.0,8.999999999999999e-08,0.0,0.0,0.0,8.999999999999999e-08
1729403420.3261523,2391,1729403420,324234112,base_link,-0.039594565895906396,0.017978735590910795,-0.3592643410206535,-0.9322221670230024,1.0,0.0,0.0,0.0,1.0,0.0,0.0,0.0,1.0,0.001660434645600617,0.0005787136615253985,0.0003977269225288182,1.2184696791468346e-07,0.0,0.0,0.0,1.2184696791468346e-07,0.0,0.0,0.0,1.2184696791468346e-07,0.26477955,0.9022118000000012,9.9047165,8.999999999999999e-08,0.0,0.0,0.0,8.999999999999999e-08,0.0,0.0,0.0,8.999999999999999e-08
1729403420.4261134,2392,1729403420,424230016,base_link,-0.03960666305570686,0.01793764020760115,-0.3592804135731474,-0.9322162505170581,1.0,0.0,0.0,0.0,1.0,0.0,0.0,0.0,1.0,0.0009249091963283718,-0.0006354338838718833,-0.0005266942316666244,1.2184696791468346e-07,0.0,0.0,0.0,1.2184696791468346e-07,0.0,0.0,0.0,1.2184696791468346e-07,0.26477955,0.8924051500000013,9.87529655,8.999999999999999e-08,0.0,0.0,0.0,8.999999999999999e-08,0.0,0.0,0.0,8.999999999999999e-08
1729403420.5259619,2393,1729403420,524224896,base_link,-0.03962490394630784,0.01793808242095163,-0.3593189817085515,-0.932200601571483,1.0,0.0,0.0,0.0,1.0,0.0,0.0,0.0,1.0,-0.00040409713983535767,0.0003147838870063424,0.00017834237951319662,1.2184696791468346e-07,0.0,0.0,0.0,1.2184696791468346e-07,0.0,0.0,0.0,1.2184696791468346e-07,0.26477955,0.9218251000000013,9.8654899,8.999999999999999e-08,0.0,0.0,0.0,8.999999999999999e-08,0.0,0.0,0.0,8.999999999999999e-08
1729403420.6261282,2394,1729403420,624222848,base_link,-0.03959885271829441,0.017954400705745305,-0.35933712722531186,-0.9321943999811155,1.0,0.0,0.0,0.0,1.0,0.0,0.0,0.0,1.0,0.00035379937617108226,-0.0008646349306218326,-1.5651596186216816e-05,1.2184696791468346e-07,0.0,0.0,0.0,1.2184696791468346e-07,0.0,0.0,0.0,1.2184696791468346e-07,0.24516625,0.9316317500000013,9.85568325,8.999999999999999e-08,0.0,0.0,0.0,8.999999999999999e-08,0.0,0.0,0.0,8.999999999999999e-08
1729403420.726504,2395,1729403420,724220800,base_link,-0.03958595736417058,0.017958236815854848,-0.3593427850201805,-0.9321926928290996,1.0,0.0,0.0,0.0,1.0,0.0,0.0,0.0,1.0,-0.0004951028386130929,-1.691643410595126e-05,0.0006367351161316037,1.2184696791468346e-07,0.0,0.0,0.0,1.2184696791468346e-07,0.0,0.0,0.0,1.2184696791468346e-07,0.2549729,0.9218251000000013,9.8654899,8.999999999999999e-08,0.0,0.0,0.0,8.999999999999999e-08,0.0,0.0,0.0,8.999999999999999e-08
1729403420.826388,2396,1729403420,824217216,base_link,-0.03959930087814898,0.017957907498052903,-0.35935020105552834,-0.9321892736615267,1.0,0.0,0.0,0.0,1.0,0.0,0.0,0.0,1.0,-0.0005076955421827734,-0.00044083927059546097,0.0013717996189370751,1.2184696791468346e-07,0.0,0.0,0.0,1.2184696791468346e-07,0.0,0.0,0.0,1.2184696791468346e-07,0.2549729,0.9022118000000012,9.8654899,8.999999999999999e-08,0.0,0.0,0.0,8.999999999999999e-08,0.0,0.0,0.0,8.999999999999999e-08
1729403420.9263194,2397,1729403420,924215424,base_link,-0.03960917498355778,0.01796707741754436,-0.3593708537006594,-0.9321807157931628,1.0,0.0,0.0,0.0,1.0,0.0,0.0,0.0,1.0,-0.00038744014455005527,5.470569885801517e-05,-0.0005294180591590703,1.2184696791468346e-07,0.0,0.0,0.0,1.2184696791468346e-07,0.0,0.0,0.0,1.2184696791468346e-07,0.26477955,0.9022118000000012,9.87529655,8.999999999999999e-08,0.0,0.0,0.0,8.999999999999999e-08,0.0,0.0,0.0,8.999999999999999e-08
1729403421.0263884,2398,1729403421,24207232,base_link,-0.039585746862650574,0.01797025556762577,-0.35939898624441174,-0.9321708036870975,1.0,0.0,0.0,0.0,1.0,0.0,0.0,0.0,1.0,5.8017201808979735e-05,0.0006953245610930027,0.0011936771916225553,1.2184696791468346e-07,0.0,0.0,0.0,1.2184696791468346e-07,0.0,0.0,0.0,1.2184696791468346e-07,0.2549729,0.9120184500000013,9.8654899,8.999999999999999e-08,0.0,0.0,0.0,8.999999999999999e-08,0.0,0.0,0.0,8.999999999999999e-08
1729403421.1264508,2399,1729403421,124203648,base_link,-0.03958792223085136,0.017999803243740627,-0.35942415971397434,-0.9321604351776223,1.0,0.0,0.0,0.0,1.0,0.0,0.0,0.0,1.0,0.0006081282626837492,0.0005138737033121288,0.00013419528841041023,1.2184696791468346e-07,0.0,0.0,0.0,1.2184696791468346e-07,0.0,0.0,0.0,1.2184696791468346e-07,0.26477955,0.9120184500000013,9.8458766,8.999999999999999e-08,0.0,0.0,0.0,8.999999999999999e-08,0.0,0.0,0.0,8.999999999999999e-08
1729403421.23074,2400,1729403421,224209280,base_link,-0.03958137593724534,0.018011249783875208,-0.3594560942102769,-0.9321481780785872,1.0,0.0,0.0,0.0,1.0,0.0,0.0,0.0,1.0,0.00028564853710122406,-0.00014906193246133617,0.0005922255804762244,1.2184696791468346e-07,0.0,0.0,0.0,1.2184696791468346e-07,0.0,0.0,0.0,1.2184696791468346e-07,0.2549729,0.9316317500000013,9.87529655,8.999999999999999e-08,0.0,0.0,0.0,8.999999999999999e-08,0.0,0.0,0.0,8.999999999999999e-08
1729403421.326513,2401,1729403421,324207488,base_link,-0.03958570961383834,0.018029315858847685,-0.3594678146409357,-0.9321431250625092,1.0,0.0,0.0,0.0,1.0,0.0,0.0,0.0,1.0,8.669075032230467e-05,-0.0004343048203736545,-0.001005609636195004,1.2184696791468346e-07,0.0,0.0,0.0,1.2184696791468346e-07,0.0,0.0,0.0,1.2184696791468346e-07,0.26477955,0.9120184500000013,9.8851032,8.999999999999999e-08,0.0,0.0,0.0,8.999999999999999e-08,0.0,0.0,0.0,8.999999999999999e-08
1729403421.4265342,2402,1729403421,424205696,base_link,-0.03957110906078395,0.0180462400239317,-0.3594863089562952,-0.9321362852188928,1.0,0.0,0.0,0.0,1.0,0.0,0.0,0.0,1.0,0.000473373947897926,0.0005889917956665159,0.0005300784250721334,1.2184696791468346e-07,0.0,0.0,0.0,1.2184696791468346e-07,0.0,0.0,0.0,1.2184696791468346e-07,0.2549729,0.9316317500000013,9.89490985,8.999999999999999e-08,0.0,0.0,0.0,8.999999999999999e-08,0.0,0.0,0.0,8.999999999999999e-08
1729403421.5264697,2403,1729403421,524202112,base_link,-0.03953784122716506,0.018037228792155115,-0.3594994266691817,-0.9321328122714726,1.0,0.0,0.0,0.0,1.0,0.0,0.0,0.0,1.0,-0.0005859769298695028,-0.0009823946747928858,-0.0001816947478801011,1.2184696791468346e-07,0.0,0.0,0.0,1.2184696791468346e-07,0.0,0.0,0.0,1.2184696791468346e-07,0.26477955,0.9120184500000013,9.87529655,8.999999999999999e-08,0.0,0.0,0.0,8.999999999999999e-08,0.0,0.0,0.0,8.999999999999999e-08
1729403421.6254928,2404,1729403421,624198784,base_link,-0.03951860583453648,0.017988397383096176,-0.3595116779212224,-0.9321298465293071,1.0,0.0,0.0,0.0,1.0,0.0,0.0,0.0,1.0,-0.0002781161165330559,0.0005658419686369599,0.00046536111040040845,1.2184696791468346e-07,0.0,0.0,0.0,1.2184696791468346e-07,0.0,0.0,0.0,1.2184696791468346e-07,0.2549729,0.9316317500000013,9.87529655,8.999999999999999e-08,0.0,0.0,0.0,8.999999999999999e-08,0.0,0.0,0.0,8.999999999999999e-08
1729403421.7266426,2405,1729403421,724195456,base_link,-0.03952617727994247,0.01797294049305715,-0.35950392430271216,-0.9321328141046303,1.0,0.0,0.0,0.0,1.0,0.0,0.0,0.0,1.0,-0.0003703664115164429,0.0001640645496081562,0.0008220173185691237,1.2184696791468346e-07,0.0,0.0,0.0,1.2184696791468346e-07,0.0,0.0,0.0,1.2184696791468346e-07,0.26477955,0.9218251000000013,9.85568325,8.999999999999999e-08,0.0,0.0,0.0,8.999999999999999e-08,0.0,0.0,0.0,8.999999999999999e-08
1729403421.8257415,2406,1729403421,824190592,base_link,-0.03954442754277367,0.01798516989045767,-0.35951901948207754,-0.9321259821209638,1.0,0.0,0.0,0.0,1.0,0.0,0.0,0.0,1.0,0.0002665604406502098,-0.0004643378779292107,-0.00046559888869523997,1.2184696791468346e-07,0.0,0.0,0.0,1.2184696791468346e-07,0.0,0.0,0.0,1.2184696791468346e-07,0.24516625,0.9218251000000013,9.87529655,8.999999999999999e-08,0.0,0.0,0.0,8.999999999999999e-08,0.0,0.0,0.0,8.999999999999999e-08
1729403421.9266994,2407,1729403421,924184448,base_link,-0.03955359143594749,0.01799042300679029,-0.35952897637102477,-0.9321216515209578,1.0,0.0,0.0,0.0,1.0,0.0,0.0,0.0,1.0,-0.0016108694253489375,-0.0002104469313053412,0.0016605426790192723,1.2184696791468346e-07,0.0,0.0,0.0,1.2184696791468346e-07,0.0,0.0,0.0,1.2184696791468346e-07,0.2549729,0.9218251000000013,9.87529655,8.999999999999999e-08,0.0,0.0,0.0,8.999999999999999e-08,0.0,0.0,0.0,8.999999999999999e-08
1729403422.0254989,2408,1729403422,24179840,base_link,-0.03956419235386869,0.01797675652106982,-0.3595559216851704,-0.9321110717556658,1.0,0.0,0.0,0.0,1.0,0.0,0.0,0.0,1.0,-0.0003312394837848842,0.0003578169562388213,0.001163735636509955,1.2184696791468346e-07,0.0,0.0,0.0,1.2184696791468346e-07,0.0,0.0,0.0,1.2184696791468346e-07,0.2549729,0.8924051500000013,9.8654899,8.999999999999999e-08,0.0,0.0,0.0,8.999999999999999e-08,0.0,0.0,0.0,8.999999999999999e-08
1729403422.1266644,2409,1729403422,124172160,base_link,-0.039574986983621066,0.01798604564954843,-0.3595641220053054,-0.9321072710443217,1.0,0.0,0.0,0.0,1.0,0.0,0.0,0.0,1.0,0.0005207852809689939,-0.0001942481030710043,-0.0010635948274284601,1.2184696791468346e-07,0.0,0.0,0.0,1.2184696791468346e-07,0.0,0.0,0.0,1.2184696791468346e-07,0.26477955,0.9120184500000013,9.8654899,8.999999999999999e-08,0.0,0.0,0.0,8.999999999999999e-08,0.0,0.0,0.0,8.999999999999999e-08
1729403422.2266986,2410,1729403422,224169088,base_link,-0.0395865566762384,0.01798082732243672,-0.35956967125887673,-0.9321047397637795,1.0,0.0,0.0,0.0,1.0,0.0,0.0,0.0,1.0,0.0003449929354246706,0.0007782722823321819,0.00023661194427404542,1.2184696791468346e-07,0.0,0.0,0.0,1.2184696791468346e-07,0.0,0.0,0.0,1.2184696791468346e-07,0.2549729,0.9316317500000013,9.89490985,8.999999999999999e-08,0.0,0.0,0.0,8.999999999999999e-08,0.0,0.0,0.0,8.999999999999999e-08
1729403422.325714,2411,1729403422,324166016,base_link,-0.03955846125016164,0.01797974584100637,-0.3595610410129425,-0.9321092825783368,1.0,0.0,0.0,0.0,1.0,0.0,0.0,0.0,1.0,0.0001566192804602906,-3.628059130278411e-05,0.0003716093488037586,1.2184696791468346e-07,0.0,0.0,0.0,1.2184696791468346e-07,0.0,0.0,0.0,1.2184696791468346e-07,0.2549729,0.9120184500000013,9.8851032,8.999999999999999e-08,0.0,0.0,0.0,8.999999999999999e-08,0.0,0.0,0.0,8.999999999999999e-08
1729403422.4256349,2412,1729403422,424161408,base_link,-0.039533734500619686,0.017972618251214864,-0.3595759579411649,-0.9321047147720714,1.0,0.0,0.0,0.0,1.0,0.0,0.0,0.0,1.0,0.0006623265217058361,0.00015657146286685036,0.0013644960708916187,1.2184696791468346e-07,0.0,0.0,0.0,1.2184696791468346e-07,0.0,0.0,0.0,1.2184696791468346e-07,0.2549729,0.9316317500000013,9.89490985,8.999999999999999e-08,0.0,0.0,0.0,8.999999999999999e-08,0.0,0.0,0.0,8.999999999999999e-08
1729403422.5257201,2413,1729403422,524155776,base_link,-0.03954009145274503,0.01795789151038881,-0.359585822349267,-0.9321009235409066,1.0,0.0,0.0,0.0,1.0,0.0,0.0,0.0,1.0,-0.0008154782699421048,0.00015194765001069752,-0.0003305009158793837,1.2184696791468346e-07,0.0,0.0,0.0,1.2184696791468346e-07,0.0,0.0,0.0,1.2184696791468346e-07,0.2549729,0.9120184500000013,9.8851032,8.999999999999999e-08,0.0,0.0,0.0,8.999999999999999e-08,0.0,0.0,0.0,8.999999999999999e-08
1729403422.625764,2414,1729403422,624150144,base_link,-0.039566894995345485,0.017962100970513276,-0.35959936935038483,-0.9320944787477061,1.0,0.0,0.0,0.0,1.0,0.0,0.0,0.0,1.0,0.0001388072269037366,0.0004777938593178987,-0.00047828513197600847,1.2184696791468346e-07,0.0,0.0,0.0,1.2184696791468346e-07,0.0,0.0,0.0,1.2184696791468346e-07,0.2549729,0.9120184500000013,9.9047165,8.999999999999999e-08,0.0,0.0,0.0,8.999999999999999e-08,0.0,0.0,0.0,8.999999999999999e-08
1729403422.727221,2415,1729403422,724142464,base_link,-0.039597042051078335,0.01796656412578558,-0.3596195238124523,-0.93208533671935,1.0,0.0,0.0,0.0,1.0,0.0,0.0,0.0,1.0,-0.0015957632567733526,-0.00011396275658626093,0.0012752915499731898,1.2184696791468346e-07,0.0,0.0,0.0,1.2184696791468346e-07,0.0,0.0,0.0,1.2184696791468346e-07,0.2549729,0.9120184500000013,9.87529655,8.999999999999999e-08,0.0,0.0,0.0,8.999999999999999e-08,0.0,0.0,0.0,8.999999999999999e-08
1729403422.8258715,2416,1729403422,824135040,base_link,-0.039607867062115526,0.017970294426064706,-0.35964608697871736,-0.9320745557657537,1.0,0.0,0.0,0.0,1.0,0.0,0.0,0.0,1.0,-0.0008312417194247246,-0.0005951375933364032,0.0021116752177476883,1.2184696791468346e-07,0.0,0.0,0.0,1.2184696791468346e-07,0.0,0.0,0.0,1.2184696791468346e-07,0.26477955,0.8924051500000013,9.85568325,8.999999999999999e-08,0.0,0.0,0.0,8.999999999999999e-08,0.0,0.0,0.0,8.999999999999999e-08
1729403422.9256785,2417,1729403422,924127616,base_link,-0.03960594242155203,0.017986503518960487,-0.35968147728995226,-0.9320606685782749,1.0,0.0,0.0,0.0,1.0,0.0,0.0,0.0,1.0,-0.00039042046410031617,0.001144143636338413,0.0011981689603999255,1.2184696791468346e-07,0.0,0.0,0.0,1.2184696791468346e-07,0.0,0.0,0.0,1.2184696791468346e-07,0.24516625,0.9120184500000013,9.87529655,8.999999999999999e-08,0.0,0.0,0.0,8.999999999999999e-08,0.0,0.0,0.0,8.999999999999999e-08
1729403423.0256016,2418,1729403423,24119680,base_link,-0.039599343958699684,0.017986898671411903,-0.3596640518427884,-0.9320676655942168,1.0,0.0,0.0,0.0,1.0,0.0,0.0,0.0,1.0,0.001561914337798953,0.0006177373579703272,0.000591395073570311,1.2184696791468346e-07,0.0,0.0,0.0,1.2184696791468346e-07,0.0,0.0,0.0,1.2184696791468346e-07,0.26477955,0.9218251000000013,9.8654899,8.999999999999999e-08,0.0,0.0,0.0,8.999999999999999e-08,0.0,0.0,0.0,8.999999999999999e-08
1729403423.1256783,2419,1729403423,124115328,base_link,-0.039591226082160244,0.018001842247254325,-0.3596537324812675,-0.9320717038969208,1.0,0.0,0.0,0.0,1.0,0.0,0.0,0.0,1.0,-0.000514722487423569,0.0006170133710838854,1.4478275261353625e-05,1.2184696791468346e-07,0.0,0.0,0.0,1.2184696791468346e-07,0.0,0.0,0.0,1.2184696791468346e-07,0.2549729,0.9120184500000013,9.8654899,8.999999999999999e-08,0.0,0.0,0.0,8.999999999999999e-08,0.0,0.0,0.0,8.999999999999999e-08
1729403423.227241,2420,1729403423,224112000,base_link,-0.039593085712283246,0.01800228854008388,-0.35967197356006564,-0.9320645774872611,1.0,0.0,0.0,0.0,1.0,0.0,0.0,0.0,1.0,0.0007910961285233498,9.657519694883379e-05,0.00023608535411767662,1.2184696791468346e-07,0.0,0.0,0.0,1.2184696791468346e-07,0.0,0.0,0.0,1.2184696791468346e-07,0.24516625,0.9218251000000013,9.8654899,8.999999999999999e-08,0.0,0.0,0.0,8.999999999999999e-08,0.0,0.0,0.0,8.999999999999999e-08
1729403423.3267124,2421,1729403423,324108672,base_link,-0.03960509292638977,0.017983418977497556,-0.35969126061101886,-0.9320569887599299,1.0,0.0,0.0,0.0,1.0,0.0,0.0,0.0,1.0,-0.001430434756912291,0.0006433717207983137,0.0009313955670222639,1.2184696791468346e-07,0.0,0.0,0.0,1.2184696791468346e-07,0.0,0.0,0.0,1.2184696791468346e-07,0.26477955,0.9022118000000012,9.9047165,8.999999999999999e-08,0.0,0.0,0.0,8.999999999999999e-08,0.0,0.0,0.0,8.999999999999999e-08
1729403423.4258156,2422,1729403423,424101504,base_link,-0.03963142413397142,0.017965925364954047,-0.35970527962459153,-0.9320507966613669,1.0,0.0,0.0,0.0,1.0,0.0,0.0,0.0,1.0,-0.000520444824360311,0.001224977313540876,0.00021023269800934924,1.2184696791468346e-07,0.0,0.0,0.0,1.2184696791468346e-07,0.0,0.0,0.0,1.2184696791468346e-07,0.26477955,0.9218251000000013,9.87529655,8.999999999999999e-08,0.0,0.0,0.0,8.999999999999999e-08,0.0,0.0,0.0,8.999999999999999e-08
1729403423.5268521,2423,1729403423,524097408,base_link,-0.039661905036334516,0.01794903458459189,-0.3597299265852757,-0.9320403131653276,1.0,0.0,0.0,0.0,1.0,0.0,0.0,0.0,1.0,6.833590305177495e-05,0.00011446935241110628,0.00044607691233977675,1.2184696791468346e-07,0.0,0.0,0.0,1.2184696791468346e-07,0.0,0.0,0.0,1.2184696791468346e-07,0.2549729,0.9218251000000013,9.85568325,8.999999999999999e-08,0.0,0.0,0.0,8.999999999999999e-08,0.0,0.0,0.0,8.999999999999999e-08
1729403423.62853,2424,1729403423,624093056,base_link,-0.03967258254003607,0.01795372090243417,-0.3597507451456388,-0.9320317330796839,1.0,0.0,0.0,0.0,1.0,0.0,0.0,0.0,1.0,0.0009501344757154584,-0.000850800483021885,0.0011011676397174597,1.2184696791468346e-07,0.0,0.0,0.0,1.2184696791468346e-07,0.0,0.0,0.0,1.2184696791468346e-07,0.24516625,0.9218251000000013,9.8851032,8.999999999999999e-08,0.0,0.0,0.0,8.999999999999999e-08,0.0,0.0,0.0,8.999999999999999e-08
1729403423.7258892,2425,1729403423,724088960,base_link,-0.03966004957935828,0.017940809303835518,-0.35976760633783644,-0.9320260067502568,1.0,0.0,0.0,0.0,1.0,0.0,0.0,0.0,1.0,0.0013266107998788357,-0.00035492182360030716,-0.0005414006882347167,1.2184696791468346e-07,0.0,0.0,0.0,1.2184696791468346e-07,0.0,0.0,0.0,1.2184696791468346e-07,0.26477955,0.9120184500000013,9.87529655,8.999999999999999e-08,0.0,0.0,0.0,8.999999999999999e-08,0.0,0.0,0.0,8.999999999999999e-08
1729403423.8261003,2426,1729403423,824084864,base_link,-0.039653980986902496,0.017947598963412824,-0.35978130985361867,-0.932020844489732,1.0,0.0,0.0,0.0,1.0,0.0,0.0,0.0,1.0,0.0010697335237637162,-0.00041119413799606264,9.972947009373462e-05,1.2184696791468346e-07,0.0,0.0,0.0,1.2184696791468346e-07,0.0,0.0,0.0,1.2184696791468346e-07,0.2549729,0.9316317500000013,9.83606995,8.999999999999999e-08,0.0,0.0,0.0,8.999999999999999e-08,0.0,0.0,0.0,8.999999999999999e-08
1729403423.9259825,2427,1729403423,924079744,base_link,-0.039620456730544346,0.01794196606146478,-0.35979706461790095,-0.9320162968288987,1.0,0.0,0.0,0.0,1.0,0.0,0.0,0.0,1.0,2.8760152417817153e-05,3.5675948311109286e-05,0.0015254875179380178,1.2184696791468346e-07,0.0,0.0,0.0,1.2184696791468346e-07,0.0,0.0,0.0,1.2184696791468346e-07,0.2549729,0.9316317500000013,9.8458766,8.999999999999999e-08,0.0,0.0,0.0,8.999999999999999e-08,0.0,0.0,0.0,8.999999999999999e-08
1729403424.0279136,2428,1729403424,24072832,base_link,-0.039582586517055596,0.017926593642395496,-0.35982248501764846,-0.9320083880313119,1.0,0.0,0.0,0.0,1.0,0.0,0.0,0.0,1.0,-5.824730760650709e-05,0.00024759062216617167,-9.229130228050084e-06,1.2184696791468346e-07,0.0,0.0,0.0,1.2184696791468346e-07,0.0,0.0,0.0,1.2184696791468346e-07,0.26477955,0.9218251000000013,9.8654899,8.999999999999999e-08,0.0,0.0,0.0,8.999999999999999e-08,0.0,0.0,0.0,8.999999999999999e-08
1729403424.1257794,2429,1729403424,124070784,base_link,-0.03959990642644163,0.01791326602359395,-0.35984608422623854,-0.9319987971979513,1.0,0.0,0.0,0.0,1.0,0.0,0.0,0.0,1.0,0.0005210794042795897,-0.000472603365778923,0.000574032310396433,1.2184696791468346e-07,0.0,0.0,0.0,1.2184696791468346e-07,0.0,0.0,0.0,1.2184696791468346e-07,0.26477955,0.9218251000000013,9.8851032,8.999999999999999e-08,0.0,0.0,0.0,8.999999999999999e-08,0.0,0.0,0.0,8.999999999999999e-08
1729403424.2276828,2430,1729403424,224068480,base_link,-0.03963294427141043,0.017908177493258917,-0.3598648757253065,-0.9319902349952272,1.0,0.0,0.0,0.0,1.0,0.0,0.0,0.0,1.0,-0.0003317168157082051,8.191737288143487e-05,9.534008131595327e-05,1.2184696791468346e-07,0.0,0.0,0.0,1.2184696791468346e-07,0.0,0.0,0.0,1.2184696791468346e-07,0.2549729,0.9218251000000013,9.8458766,8.999999999999999e-08,0.0,0.0,0.0,8.999999999999999e-08,0.0,0.0,0.0,8.999999999999999e-08
1729403424.3258586,2431,1729403424,324061824,base_link,-0.03965695061331175,0.017884674647321637,-0.3598994428990832,-0.9319763171249269,1.0,0.0,0.0,0.0,1.0,0.0,0.0,0.0,1.0,0.0008215417619794607,-0.0005892540211789309,0.0007092622108757497,1.2184696791468346e-07,0.0,0.0,0.0,1.2184696791468346e-07,0.0,0.0,0.0,1.2184696791468346e-07,0.26477955,0.9218251000000013,9.8654899,8.999999999999999e-08,0.0,0.0,0.0,8.999999999999999e-08,0.0,0.0,0.0,8.999999999999999e-08
1729403424.4268267,2432,1729403424,425057984,base_link,-0.03967622551279668,0.017865456350308707,-0.35993122027242164,-0.9319635933187831,1.0,0.0,0.0,0.0,1.0,0.0,0.0,0.0,1.0,0.00024120984016917646,0.000493980827741325,0.0007561323000118135,1.2184696791468346e-07,0.0,0.0,0.0,1.2184696791468346e-07,0.0,0.0,0.0,1.2184696791468346e-07,0.26477955,0.9218251000000013,9.8654899,8.999999999999999e-08,0.0,0.0,0.0,8.999999999999999e-08,0.0,0.0,0.0,8.999999999999999e-08
1729403424.5258613,2433,1729403424,524054144,base_link,-0.039655159425671174,0.01785466140889493,-0.35994532211046565,-0.9319592504437579,1.0,0.0,0.0,0.0,1.0,0.0,0.0,0.0,1.0,-0.0005332669243216515,0.0004556126368697734,0.0008455963106825947,1.2184696791468346e-07,0.0,0.0,0.0,1.2184696791468346e-07,0.0,0.0,0.0,1.2184696791468346e-07,0.2745862,0.9316317500000013,9.8851032,8.999999999999999e-08,0.0,0.0,0.0,8.999999999999999e-08,0.0,0.0,0.0,8.999999999999999e-08
1729403424.6260502,2434,1729403424,624049024,base_link,-0.03961075068264759,0.01785809702973873,-0.35996591638172576,-0.9319531189090458,1.0,0.0,0.0,0.0,1.0,0.0,0.0,0.0,1.0,-6.194220623001456e-05,3.8715701521141516e-05,0.0004942496307194233,1.2184696791468346e-07,0.0,0.0,0.0,1.2184696791468346e-07,0.0,0.0,0.0,1.2184696791468346e-07,0.2549729,0.9218251000000013,9.87529655,8.999999999999999e-08,0.0,0.0,0.0,8.999999999999999e-08,0.0,0.0,0.0,8.999999999999999e-08
1729403424.7259154,2435,1729403424,724040832,base_link,-0.039595127823112065,0.017844166938450444,-0.3600094140585566,-0.9319372475377079,1.0,0.0,0.0,0.0,1.0,0.0,0.0,0.0,1.0,0.0009159069159068167,-1.022382639348507e-05,-5.590140062849968e-06,1.2184696791468346e-07,0.0,0.0,0.0,1.2184696791468346e-07,0.0,0.0,0.0,1.2184696791468346e-07,0.26477955,0.9120184500000013,9.87529655,8.999999999999999e-08,0.0,0.0,0.0,8.999999999999999e-08,0.0,0.0,0.0,8.999999999999999e-08
1729403424.825924,2436,1729403424,824032640,base_link,-0.03959530759503803,0.017834422039994115,-0.36003956726852254,-0.9319257776282663,1.0,0.0,0.0,0.0,1.0,0.0,0.0,0.0,1.0,0.0007013590075075626,-0.0004812218830920756,-0.00015635642921552057,1.2184696791468346e-07,0.0,0.0,0.0,1.2184696791468346e-07,0.0,0.0,0.0,1.2184696791468346e-07,0.2549729,0.9218251000000013,9.87529655,8.999999999999999e-08,0.0,0.0,0.0,8.999999999999999e-08,0.0,0.0,0.0,8.999999999999999e-08
1729403424.9260578,2437,1729403424,924029056,base_link,-0.03960392746185463,0.017812680328291173,-0.3600665459407266,-0.9319154038019934,1.0,0.0,0.0,0.0,1.0,0.0,0.0,0.0,1.0,0.0004773505497723818,0.0007615720387548208,-5.814632822875874e-05,1.2184696791468346e-07,0.0,0.0,0.0,1.2184696791468346e-07,0.0,0.0,0.0,1.2184696791468346e-07,0.26477955,0.9022118000000012,9.89490985,8.999999999999999e-08,0.0,0.0,0.0,8.999999999999999e-08,0.0,0.0,0.0,8.999999999999999e-08
1729403425.0263107,2438,1729403425,24021888,base_link,-0.039608041155368146,0.017802999364266003,-0.36009789989942975,-0.9319032990485068,1.0,0.0,0.0,0.0,1.0,0.0,0.0,0.0,1.0,0.0013392858672887087,0.0008288866956718265,-0.000484893098473549,1.2184696791468346e-07,0.0,0.0,0.0,1.2184696791468346e-07,0.0,0.0,0.0,1.2184696791468346e-07,0.2549729,0.9120184500000013,9.8654899,8.999999999999999e-08,0.0,0.0,0.0,8.999999999999999e-08,0.0,0.0,0.0,8.999999999999999e-08
1729403425.1261084,2439,1729403425,124017024,base_link,-0.03959421260978236,0.01782034255209682,-0.36011588917717435,-0.9318966037502606,1.0,0.0,0.0,0.0,1.0,0.0,0.0,0.0,1.0,0.0011129658669233322,0.0015757303917780519,0.00018276908667758088,1.2184696791468346e-07,0.0,0.0,0.0,1.2184696791468346e-07,0.0,0.0,0.0,1.2184696791468346e-07,0.2549729,0.9218251000000013,9.8654899,8.999999999999999e-08,0.0,0.0,0.0,8.999999999999999e-08,0.0,0.0,0.0,8.999999999999999e-08
1729403425.2263875,2440,1729403425,224013440,base_link,-0.03956569229345344,0.017856531373882774,-0.3601222278251166,-0.9318946728611062,1.0,0.0,0.0,0.0,1.0,0.0,0.0,0.0,1.0,0.0004228207399137318,0.0007128447759896517,-6.236696208361544e-05,1.2184696791468346e-07,0.0,0.0,0.0,1.2184696791468346e-07,0.0,0.0,0.0,1.2184696791468346e-07,0.2745862,0.9120184500000013,9.87529655,8.999999999999999e-08,0.0,0.0,0.0,8.999999999999999e-08,0.0,0.0,0.0,8.999999999999999e-08
1729403425.327728,2441,1729403425,324009088,base_link,-0.039564988193663345,0.01785415528788093,-0.36013740739752054,-0.931888882131976,1.0,0.0,0.0,0.0,1.0,0.0,0.0,0.0,1.0,0.0012753225164487958,-0.0008406952838413417,8.608723874203872e-05,1.2184696791468346e-07,0.0,0.0,0.0,1.2184696791468346e-07,0.0,0.0,0.0,1.2184696791468346e-07,0.26477955,0.8924051500000013,9.87529655,8.999999999999999e-08,0.0,0.0,0.0,8.999999999999999e-08,0.0,0.0,0.0,8.999999999999999e-08
1729403425.4285648,2442,1729403425,424001152,base_link,-0.03957783631486273,0.01785124916364339,-0.36015211499243033,-0.9318827082001311,1.0,0.0,0.0,0.0,1.0,0.0,0.0,0.0,1.0,-0.0006581640336662531,0.0001790050737326965,0.00018467278277967122,1.2184696791468346e-07,0.0,0.0,0.0,1.2184696791468346e-07,0.0,0.0,0.0,1.2184696791468346e-07,0.24516625,0.9120184500000013,9.8654899,8.999999999999999e-08,0.0,0.0,0.0,8.999999999999999e-08,0.0,0.0,0.0,8.999999999999999e-08
1729403425.5262115,2443,1729403425,523994496,base_link,-0.03956988392607821,0.01782149698966352,-0.3601852997971517,-0.9318707895095543,1.0,0.0,0.0,0.0,1.0,0.0,0.0,0.0,1.0,0.00070039281854406,0.0011945145670324564,0.0003677030617836861,1.2184696791468346e-07,0.0,0.0,0.0,1.2184696791468346e-07,0.0,0.0,0.0,1.2184696791468346e-07,0.2549729,0.9316317500000013,9.85568325,8.999999999999999e-08,0.0,0.0,0.0,8.999999999999999e-08,0.0,0.0,0.0,8.999999999999999e-08
1729403425.62636,2444,1729403425,623991168,base_link,-0.03957450747173449,0.017798795318672588,-0.3602217571525244,-0.9318569347907012,1.0,0.0,0.0,0.0,1.0,0.0,0.0,0.0,1.0,-0.0001468595291953534,-0.000531000376213342,5.880582466488711e-05,1.2184696791468346e-07,0.0,0.0,0.0,1.2184696791468346e-07,0.0,0.0,0.0,1.2184696791468346e-07,0.26477955,0.9022118000000012,9.8654899,8.999999999999999e-08,0.0,0.0,0.0,8.999999999999999e-08,0.0,0.0,0.0,8.999999999999999e-08
1729403425.7266018,2445,1729403425,723988096,base_link,-0.039552431399926626,0.01779032544061644,-0.3602485225834927,-0.9318476868391539,1.0,0.0,0.0,0.0,1.0,0.0,0.0,0.0,1.0,0.001557162613607943,-0.0008858919609338044,0.0009005620377138258,1.2184696791468346e-07,0.0,0.0,0.0,1.2184696791468346e-07,0.0,0.0,0.0,1.2184696791468346e-07,0.24516625,0.9218251000000013,9.8851032,8.999999999999999e-08,0.0,0.0,0.0,8.999999999999999e-08,0.0,0.0,0.0,8.999999999999999e-08
1729403425.82616,2446,1729403425,823984768,base_link,-0.039526956086209236,0.01778798107923963,-0.36027629795549215,-0.9318380742399233,1.0,0.0,0.0,0.0,1.0,0.0,0.0,0.0,1.0,0.0010310200741514564,0.0003054475819226355,0.00040533501305617387,1.2184696791468346e-07,0.0,0.0,0.0,1.2184696791468346e-07,0.0,0.0,0.0,1.2184696791468346e-07,0.2549729,0.9218251000000013,9.8851032,8.999999999999999e-08,0.0,0.0,0.0,8.999999999999999e-08,0.0,0.0,0.0,8.999999999999999e-08
1729403425.9272842,2447,1729403425,923981440,base_link,-0.039523525335264466,0.01777009508509309,-0.3602745997502404,-0.931839217590966,1.0,0.0,0.0,0.0,1.0,0.0,0.0,0.0,1.0,0.0001339927111985162,-0.0005730362026952207,6.61232479615144e-06,1.2184696791468346e-07,0.0,0.0,0.0,1.2184696791468346e-07,0.0,0.0,0.0,1.2184696791468346e-07,0.2745862,0.9218251000000013,9.87529655,8.999999999999999e-08,0.0,0.0,0.0,8.999999999999999e-08,0.0,0.0,0.0,8.999999999999999e-08
1729403426.029168,2448,1729403426,23972992,base_link,-0.039507766191324636,0.017783245163340185,-0.36026814781306904,-0.9318421294797594,1.0,0.0,0.0,0.0,1.0,0.0,0.0,0.0,1.0,0.0011924009304493666,-6.164698424981912e-05,-0.00047749635996297,1.2184696791468346e-07,0.0,0.0,0.0,1.2184696791468346e-07,0.0,0.0,0.0,1.2184696791468346e-07,0.2549729,0.9218251000000013,9.8851032,8.999999999999999e-08,0.0,0.0,0.0,8.999999999999999e-08,0.0,0.0,0.0,8.999999999999999e-08
1729403426.1261275,2449,1729403426,123965312,base_link,-0.03948447680947701,0.01780589937994692,-0.3602565618400431,-0.9318471632674235,1.0,0.0,0.0,0.0,1.0,0.0,0.0,0.0,1.0,-0.0005607118946500123,0.0005096893291920424,0.00021386650041677052,1.2184696791468346e-07,0.0,0.0,0.0,1.2184696791468346e-07,0.0,0.0,0.0,1.2184696791468346e-07,0.2549729,0.9316317500000013,9.8851032,8.999999999999999e-08,0.0,0.0,0.0,8.999999999999999e-08,0.0,0.0,0.0,8.999999999999999e-08
1729403426.2272034,2450,1729403426,223959936,base_link,-0.0394586902342497,0.017833534416881607,-0.3602818451490294,-0.9318379520448876,1.0,0.0,0.0,0.0,1.0,0.0,0.0,0.0,1.0,-0.00011100768460892141,-0.0004909231211058795,0.00014191916852723813,1.2184696791468346e-07,0.0,0.0,0.0,1.2184696791468346e-07,0.0,0.0,0.0,1.2184696791468346e-07,0.24516625,0.9218251000000013,9.85568325,8.999999999999999e-08,0.0,0.0,0.0,8.999999999999999e-08,0.0,0.0,0.0,8.999999999999999e-08
1729403426.3263128,2451,1729403426,323956864,base_link,-0.03946668351386141,0.017867853684291377,-0.36030557707019883,-0.9318277801338852,1.0,0.0,0.0,0.0,1.0,0.0,0.0,0.0,1.0,0.0001803156774258241,-0.0006665964028798043,0.0009755795472301544,1.2184696791468346e-07,0.0,0.0,0.0,1.2184696791468346e-07,0.0,0.0,0.0,1.2184696791468346e-07,0.2549729,0.9120184500000013,9.85568325,8.999999999999999e-08,0.0,0.0,0.0,8.999999999999999e-08,0.0,0.0,0.0,8.999999999999999e-08
1729403426.426316,2452,1729403426,423948928,base_link,-0.03947785385328006,0.01789450682268693,-0.3603309450387033,-0.9318169861771284,1.0,0.0,0.0,0.0,1.0,0.0,0.0,0.0,1.0,-0.0001512801245553419,-0.00011383940727682773,0.0008870040182955563,1.2184696791468346e-07,0.0,0.0,0.0,1.2184696791468346e-07,0.0,0.0,0.0,1.2184696791468346e-07,0.2549729,0.9316317500000013,9.87529655,8.999999999999999e-08,0.0,0.0,0.0,8.999999999999999e-08,0.0,0.0,0.0,8.999999999999999e-08
1729403426.5263138,2453,1729403426,523944576,base_link,-0.03948503301921126,0.017860944170064216,-0.36037138325375334,-0.9318016875776745,1.0,0.0,0.0,0.0,1.0,0.0,0.0,0.0,1.0,0.00039131412631832063,0.0006247280980460347,0.0011606370098888874,1.2184696791468346e-07,0.0,0.0,0.0,1.2184696791468346e-07,0.0,0.0,0.0,1.2184696791468346e-07,0.24516625,0.9218251000000013,9.87529655,8.999999999999999e-08,0.0,0.0,0.0,8.999999999999999e-08,0.0,0.0,0.0,8.999999999999999e-08
1729403426.6263084,2454,1729403426,624941504,base_link,-0.03945753690792028,0.017833025736684306,-0.3603777023694004,-0.9318009431252936,1.0,0.0,0.0,0.0,1.0,0.0,0.0,0.0,1.0,-0.0005408179713413119,0.00013287446927279245,0.0009621583740226924,1.2184696791468346e-07,0.0,0.0,0.0,1.2184696791468346e-07,0.0,0.0,0.0,1.2184696791468346e-07,0.26477955,0.9316317500000013,9.8851032,8.999999999999999e-08,0.0,0.0,0.0,8.999999999999999e-08,0.0,0.0,0.0,8.999999999999999e-08
1729403426.726217,2455,1729403426,723938944,base_link,-0.039459435735755985,0.017822810904398016,-0.3603866993010729,-0.9317975785060615,1.0,0.0,0.0,0.0,1.0,0.0,0.0,0.0,1.0,-0.0003973398415837437,0.0001415040314896033,0.0006503897020593286,1.2184696791468346e-07,0.0,0.0,0.0,1.2184696791468346e-07,0.0,0.0,0.0,1.2184696791468346e-07,0.26477955,0.9022118000000012,9.87529655,8.999999999999999e-08,0.0,0.0,0.0,8.999999999999999e-08,0.0,0.0,0.0,8.999999999999999e-08
1729403426.826142,2456,1729403426,823931264,base_link,-0.03946190310368348,0.017807857900826847,-0.3603905534849142,-0.9317962692344592,1.0,0.0,0.0,0.0,1.0,0.0,0.0,0.0,1.0,0.0005908493767492473,0.00026834671734832227,0.00012839009286835787,1.2184696791468346e-07,0.0,0.0,0.0,1.2184696791468346e-07,0.0,0.0,0.0,1.2184696791468346e-07,0.2549729,0.9218251000000013,9.87529655,8.999999999999999e-08,0.0,0.0,0.0,8.999999999999999e-08,0.0,0.0,0.0,8.999999999999999e-08
1729403426.9267879,2457,1729403426,923923584,base_link,-0.03944071009207701,0.017806121532768202,-0.36039418940663814,-0.9317957934361614,1.0,0.0,0.0,0.0,1.0,0.0,0.0,0.0,1.0,0.00032078989897854626,0.0008780669886618853,-6.479574949480701e-06,1.2184696791468346e-07,0.0,0.0,0.0,1.2184696791468346e-07,0.0,0.0,0.0,1.2184696791468346e-07,0.24516625,0.9022118000000012,9.87529655,8.999999999999999e-08,0.0,0.0,0.0,8.999999999999999e-08,0.0,0.0,0.0,8.999999999999999e-08
1729403427.026352,2458,1729403427,23915904,base_link,-0.03941929932605664,0.01781916484937323,-0.3604090992183657,-0.9317906832574145,1.0,0.0,0.0,0.0,1.0,0.0,0.0,0.0,1.0,-0.0004827678494621068,6.688408029731356e-05,-0.0005571036599576473,1.2184696791468346e-07,0.0,0.0,0.0,1.2184696791468346e-07,0.0,0.0,0.0,1.2184696791468346e-07,0.2549729,0.9316317500000013,9.8851032,8.999999999999999e-08,0.0,0.0,0.0,8.999999999999999e-08,0.0,0.0,0.0,8.999999999999999e-08
1729403427.12636,2459,1729403427,123913088,base_link,-0.03940449325006481,0.01782889824831439,-0.3604098822392888,-0.9317908204544725,1.0,0.0,0.0,0.0,1.0,0.0,0.0,0.0,1.0,0.0005520036211237311,0.00044986305874772375,0.0006465209880843757,1.2184696791468346e-07,0.0,0.0,0.0,1.2184696791468346e-07,0.0,0.0,0.0,1.2184696791468346e-07,0.26477955,0.9022118000000012,9.85568325,8.999999999999999e-08,0.0,0.0,0.0,8.999999999999999e-08,0.0,0.0,0.0,8.999999999999999e-08
1729403427.22657,2460,1729403427,223908992,base_link,-0.039385911519089,0.017854689008611382,-0.3604458883602521,-0.9317771845341593,1.0,0.0,0.0,0.0,1.0,0.0,0.0,0.0,1.0,0.0005711564444936812,0.00012490290100686263,0.0008368211565539241,1.2184696791468346e-07,0.0,0.0,0.0,1.2184696791468346e-07,0.0,0.0,0.0,1.2184696791468346e-07,0.2549729,0.9316317500000013,9.85568325,8.999999999999999e-08,0.0,0.0,0.0,8.999999999999999e-08,0.0,0.0,0.0,8.999999999999999e-08
1729403427.3275292,2461,1729403427,323904640,base_link,-0.03941077044038064,0.01786939689212648,-0.3604568456695169,-0.9317716127023775,1.0,0.0,0.0,0.0,1.0,0.0,0.0,0.0,1.0,0.000223229915718548,-0.0003382237337063997,0.0008875242783688009,1.2184696791468346e-07,0.0,0.0,0.0,1.2184696791468346e-07,0.0,0.0,0.0,1.2184696791468346e-07,0.24516625,0.9120184500000013,9.87529655,8.999999999999999e-08,0.0,0.0,0.0,8.999999999999999e-08,0.0,0.0,0.0,8.999999999999999e-08
1729403427.425353,2462,1729403427,423902080,base_link,-0.03943630028713636,0.01791420239059383,-0.3604731064995042,-0.9317633814778132,1.0,0.0,0.0,0.0,1.0,0.0,0.0,0.0,1.0,-3.813643706962466e-05,-0.0009933458641171455,0.000157394853886217,1.2184696791468346e-07,0.0,0.0,0.0,1.2184696791468346e-07,0.0,0.0,0.0,1.2184696791468346e-07,0.26477955,0.9022118000000012,9.89490985,8.999999999999999e-08,0.0,0.0,0.0,8.999999999999999e-08,0.0,0.0,0.0,8.999999999999999e-08
1729403427.5263038,2463,1729403427,523894912,base_link,-0.03944685212393826,0.017944876173165057,-0.3604696999866692,-0.9317636624531795,1.0,0.0,0.0,0.0,1.0,0.0,0.0,0.0,1.0,-0.0004664879525080323,0.0002847279829438776,-0.0001824172213673592,1.2184696791468346e-07,0.0,0.0,0.0,1.2184696791468346e-07,0.0,0.0,0.0,1.2184696791468346e-07,0.2549729,0.9316317500000013,9.8851032,8.999999999999999e-08,0.0,0.0,0.0,8.999999999999999e-08,0.0,0.0,0.0,8.999999999999999e-08
1729403427.625467,2464,1729403427,623888000,base_link,-0.03940301508793607,0.01797379443473624,-0.3604738008664059,-0.9317633733971971,1.0,0.0,0.0,0.0,1.0,0.0,0.0,0.0,1.0,-0.0005656260764226317,0.0011175964027643204,-0.0003875155525747688,1.2184696791468346e-07,0.0,0.0,0.0,1.2184696791468346e-07,0.0,0.0,0.0,1.2184696791468346e-07,0.2549729,0.9218251000000013,9.87529655,8.999999999999999e-08,0.0,0.0,0.0,8.999999999999999e-08,0.0,0.0,0.0,8.999999999999999e-08
1729403427.726484,2465,1729403427,723880832,base_link,-0.039337818735638415,0.018005998290783556,-0.36049254532293945,-0.9317582544894693,1.0,0.0,0.0,0.0,1.0,0.0,0.0,0.0,1.0,-0.0017610981594771147,-6.7166220105717415e-06,0.001146205817349255,1.2184696791468346e-07,0.0,0.0,0.0,1.2184696791468346e-07,0.0,0.0,0.0,1.2184696791468346e-07,0.26477955,0.9218251000000013,9.8851032,8.999999999999999e-08,0.0,0.0,0.0,8.999999999999999e-08,0.0,0.0,0.0,8.999999999999999e-08
1729403427.8254342,2466,1729403427,823876736,base_link,-0.03932308771052188,0.018037428249246354,-0.3605244905109098,-0.9317459083338724,1.0,0.0,0.0,0.0,1.0,0.0,0.0,0.0,1.0,0.000489919853862375,-6.777827366022378e-05,0.0012495608534663916,1.2184696791468346e-07,0.0,0.0,0.0,1.2184696791468346e-07,0.0,0.0,0.0,1.2184696791468346e-07,0.26477955,0.9120184500000013,9.8851032,8.999999999999999e-08,0.0,0.0,0.0,8.999999999999999e-08,0.0,0.0,0.0,8.999999999999999e-08
1729403427.9260452,2467,1729403427,923872896,base_link,-0.03934420904537839,0.018032755398474466,-0.36055330982207906,-0.9317339554420435,1.0,0.0,0.0,0.0,1.0,0.0,0.0,0.0,1.0,-4.7640052798669785e-05,0.000750486389733851,0.00023980696278158567,1.2184696791468346e-07,0.0,0.0,0.0,1.2184696791468346e-07,0.0,0.0,0.0,1.2184696791468346e-07,0.24516625,0.9120184500000013,9.87529655,8.999999999999999e-08,0.0,0.0,0.0,8.999999999999999e-08,0.0,0.0,0.0,8.999999999999999e-08
1729403428.025489,2468,1729403428,23865216,base_link,-0.03935343229092836,0.01802601170816656,-0.36057211741767786,-0.9317264182203661,1.0,0.0,0.0,0.0,1.0,0.0,0.0,0.0,1.0,0.0002717777679208666,0.0012579837348312137,-0.0009251078590750695,1.2184696791468346e-07,0.0,0.0,0.0,1.2184696791468346e-07,0.0,0.0,0.0,1.2184696791468346e-07,0.26477955,0.9218251000000013,9.87529655,8.999999999999999e-08,0.0,0.0,0.0,8.999999999999999e-08,0.0,0.0,0.0,8.999999999999999e-08
1729403428.1253486,2469,1729403428,123860096,base_link,-0.03932636691812429,0.01803012054474891,-0.3605962456862701,-0.9317181436545764,1.0,0.0,0.0,0.0,1.0,0.0,0.0,0.0,1.0,0.0003184658708050847,0.0017538294196128845,0.0007134141051210461,1.2184696791468346e-07,0.0,0.0,0.0,1.2184696791468346e-07,0.0,0.0,0.0,1.2184696791468346e-07,0.24516625,0.9218251000000013,9.8851032,8.999999999999999e-08,0.0,0.0,0.0,8.999999999999999e-08,0.0,0.0,0.0,8.999999999999999e-08
1729403428.2301176,2470,1729403428,223855488,base_link,-0.039313135579358935,0.018035701292929057,-0.36061465261533737,-0.9317114699137876,1.0,0.0,0.0,0.0,1.0,0.0,0.0,0.0,1.0,-4.5254611904965714e-05,0.000769499456509948,0.001565673854202032,1.2184696791468346e-07,0.0,0.0,0.0,1.2184696791468346e-07,0.0,0.0,0.0,1.2184696791468346e-07,0.2549729,0.9218251000000013,9.8458766,8.999999999999999e-08,0.0,0.0,0.0,8.999999999999999e-08,0.0,0.0,0.0,8.999999999999999e-08
1729403428.3258579,2471,1729403428,323848576,base_link,-0.039272471535057356,0.01803041129900978,-0.36061836087038945,-0.9317118519430083,1.0,0.0,0.0,0.0,1.0,0.0,0.0,0.0,1.0,-0.0013562485110014677,-0.00031641064560972154,-0.00010383372864453118,1.2184696791468346e-07,0.0,0.0,0.0,1.2184696791468346e-07,0.0,0.0,0.0,1.2184696791468346e-07,0.2549729,0.9120184500000013,9.8851032,8.999999999999999e-08,0.0,0.0,0.0,8.999999999999999e-08,0.0,0.0,0.0,8.999999999999999e-08
1729403428.4255478,2472,1729403428,423841664,base_link,-0.03926614699393855,0.018013326254636718,-0.3606229978591357,-0.9317106542229645,1.0,0.0,0.0,0.0,1.0,0.0,0.0,0.0,1.0,0.000748594175092876,2.8035414288751747e-05,-0.00027331491583026946,1.2184696791468346e-07,0.0,0.0,0.0,1.2184696791468346e-07,0.0,0.0,0.0,1.2184696791468346e-07,0.2549729,0.9316317500000013,9.87529655,8.999999999999999e-08,0.0,0.0,0.0,8.999999999999999e-08,0.0,0.0,0.0,8.999999999999999e-08
1729403428.5255942,2473,1729403428,523837568,base_link,-0.03923793186914394,0.018013317772440696,-0.36064667273150286,-0.9317026792561873,1.0,0.0,0.0,0.0,1.0,0.0,0.0,0.0,1.0,-0.0017310349503532052,0.0010341149754822254,0.0006057539139874278,1.2184696791468346e-07,0.0,0.0,0.0,1.2184696791468346e-07,0.0,0.0,0.0,1.2184696791468346e-07,0.26477955,0.9218251000000013,9.8654899,8.999999999999999e-08,0.0,0.0,0.0,8.999999999999999e-08,0.0,0.0,0.0,8.999999999999999e-08
1729403428.6255643,2474,1729403428,623833728,base_link,-0.03924114167401152,0.01800918923028947,-0.36068388553337793,-0.9316882185688156,1.0,0.0,0.0,0.0,1.0,0.0,0.0,0.0,1.0,0.00021308221039362252,-0.0009875138057395818,-0.0014416320482268927,1.2184696791468346e-07,0.0,0.0,0.0,1.2184696791468346e-07,0.0,0.0,0.0,1.2184696791468346e-07,0.26477955,0.9218251000000013,9.8851032,8.999999999999999e-08,0.0,0.0,0.0,8.999999999999999e-08,0.0,0.0,0.0,8.999999999999999e-08
1729403428.7255197,2475,1729403428,723826560,base_link,-0.03922650709991564,0.01795958018218477,-0.3607150424906341,-0.9316777300877164,1.0,0.0,0.0,0.0,1.0,0.0,0.0,0.0,1.0,-0.0005189864314161241,0.00023886119015514848,-0.00033178078592754906,1.2184696791468346e-07,0.0,0.0,0.0,1.2184696791468346e-07,0.0,0.0,0.0,1.2184696791468346e-07,0.28439285000000003,0.9218251000000013,9.8851032,8.999999999999999e-08,0.0,0.0,0.0,8.999999999999999e-08,0.0,0.0,0.0,8.999999999999999e-08
1729403428.8255315,2476,1729403428,823821696,base_link,-0.03919901696852212,0.01791981622823806,-0.3607563528227185,-0.9316636577397972,1.0,0.0,0.0,0.0,1.0,0.0,0.0,0.0,1.0,-0.0004908333066850901,0.0004931808216497303,0.000656595395412296,1.2184696791468346e-07,0.0,0.0,0.0,1.2184696791468346e-07,0.0,0.0,0.0,1.2184696791468346e-07,0.2549729,0.9120184500000013,9.8654899,8.999999999999999e-08,0.0,0.0,0.0,8.999999999999999e-08,0.0,0.0,0.0,8.999999999999999e-08
1729403428.925467,2477,1729403428,923814784,base_link,-0.039164164894846615,0.017916236494560756,-0.36078659043018024,-0.9316534832349019,1.0,0.0,0.0,0.0,1.0,0.0,0.0,0.0,1.0,-0.0007192798657342792,0.00018102818285115082,0.0016392021207138896,1.2184696791468346e-07,0.0,0.0,0.0,1.2184696791468346e-07,0.0,0.0,0.0,1.2184696791468346e-07,0.26477955,0.9120184500000013,9.83606995,8.999999999999999e-08,0.0,0.0,0.0,8.999999999999999e-08,0.0,0.0,0.0,8.999999999999999e-08
1729403429.0256855,2478,1729403429,23807616,base_link,-0.039134105950116446,0.017931903162094517,-0.36078688275221155,-0.931654331731685,1.0,0.0,0.0,0.0,1.0,0.0,0.0,0.0,1.0,0.00048505215090699494,-0.00045822287211194645,-0.0008563665905967354,1.2184696791468346e-07,0.0,0.0,0.0,1.2184696791468346e-07,0.0,0.0,0.0,1.2184696791468346e-07,0.2549729,0.9022118000000012,9.85568325,8.999999999999999e-08,0.0,0.0,0.0,8.999999999999999e-08,0.0,0.0,0.0,8.999999999999999e-08
1729403429.1257381,2479,1729403429,123800960,base_link,-0.039118700260562744,0.017936252479204072,-0.3607963995860654,-0.931651209510651,1.0,0.0,0.0,0.0,1.0,0.0,0.0,0.0,1.0,-0.0001693723606877029,-0.0005801287479698657,0.0007950390572659672,1.2184696791468346e-07,0.0,0.0,0.0,1.2184696791468346e-07,0.0,0.0,0.0,1.2184696791468346e-07,0.2745862,0.9218251000000013,9.8654899,8.999999999999999e-08,0.0,0.0,0.0,8.999999999999999e-08,0.0,0.0,0.0,8.999999999999999e-08
1729403429.2257738,2480,1729403429,223797632,base_link,-0.03910638963952101,0.017940655672288145,-0.3608298366716873,-0.9316386918386835,1.0,0.0,0.0,0.0,1.0,0.0,0.0,0.0,1.0,-0.0009017595439217985,0.000939680787269026,0.0002886199508793651,1.2184696791468346e-07,0.0,0.0,0.0,1.2184696791468346e-07,0.0,0.0,0.0,1.2184696791468346e-07,0.24516625,0.9218251000000013,9.87529655,8.999999999999999e-08,0.0,0.0,0.0,8.999999999999999e-08,0.0,0.0,0.0,8.999999999999999e-08
1729403429.325683,2481,1729403429,323794304,base_link,-0.03909003912877241,0.0179220286368794,-0.3608672976147016,-0.9316252268174755,1.0,0.0,0.0,0.0,1.0,0.0,0.0,0.0,1.0,-0.00032513722544535995,0.0018345467979088426,0.0008581001893617211,1.2184696791468346e-07,0.0,0.0,0.0,1.2184696791468346e-07,0.0,0.0,0.0,1.2184696791468346e-07,0.26477955,0.9120184500000013,9.87529655,8.999999999999999e-08,0.0,0.0,0.0,8.999999999999999e-08,0.0,0.0,0.0,8.999999999999999e-08
1729403429.4258006,2482,1729403429,423797376,base_link,-0.039078222576684175,0.01788896694026386,-0.360893288762367,-0.9316162898470272,1.0,0.0,0.0,0.0,1.0,0.0,0.0,0.0,1.0,-0.00045360246440395713,0.0006758944364264607,0.00013971565931569777,1.2184696791468346e-07,0.0,0.0,0.0,1.2184696791468346e-07,0.0,0.0,0.0,1.2184696791468346e-07,0.24516625,0.9218251000000013,9.8851032,8.999999999999999e-08,0.0,0.0,0.0,8.999999999999999e-08,0.0,0.0,0.0,8.999999999999999e-08
1729403429.525969,2483,1729403429,523790976,base_link,-0.03906510614151649,0.017863711786616367,-0.360896918018494,-0.9316159186317658,1.0,0.0,0.0,0.0,1.0,0.0,0.0,0.0,1.0,-0.001810263143852353,0.00044747340143658226,0.0004118276992812752,1.2184696791468346e-07,0.0,0.0,0.0,1.2184696791468346e-07,0.0,0.0,0.0,1.2184696791468346e-07,0.2549729,0.9218251000000013,9.8654899,8.999999999999999e-08,0.0,0.0,0.0,8.999999999999999e-08,0.0,0.0,0.0,8.999999999999999e-08
1729403429.6257744,2484,1729403429,623782784,base_link,-0.03906254694954415,0.01784301888010057,-0.3609153226987818,-0.9316092925386119,1.0,0.0,0.0,0.0,1.0,0.0,0.0,0.0,1.0,-0.00010653000208549201,0.0006899663130752743,0.0009495358099229633,1.2184696791468346e-07,0.0,0.0,0.0,1.2184696791468346e-07,0.0,0.0,0.0,1.2184696791468346e-07,0.2549729,0.9218251000000013,9.89490985,8.999999999999999e-08,0.0,0.0,0.0,8.999999999999999e-08,0.0,0.0,0.0,8.999999999999999e-08
1729403429.7258058,2485,1729403429,723778432,base_link,-0.03910152941059377,0.017829130055387644,-0.3608995059030605,-0.9316140505371027,1.0,0.0,0.0,0.0,1.0,0.0,0.0,0.0,1.0,-0.0005287128151394427,4.4610198528971564e-05,0.0003351423947606236,1.2184696791468346e-07,0.0,0.0,0.0,1.2184696791468346e-07,0.0,0.0,0.0,1.2184696791468346e-07,0.2549729,0.9120184500000013,9.8654899,8.999999999999999e-08,0.0,0.0,0.0,8.999999999999999e-08,0.0,0.0,0.0,8.999999999999999e-08
1729403429.8262587,2486,1729403429,823771776,base_link,-0.03916292967060039,0.017819726886438028,-0.3608848525737636,-0.9316173277994142,1.0,0.0,0.0,0.0,1.0,0.0,0.0,0.0,1.0,5.695589425158687e-05,-0.0006869480130262672,0.0007908123079687358,1.2184696791468346e-07,0.0,0.0,0.0,1.2184696791468346e-07,0.0,0.0,0.0,1.2184696791468346e-07,0.2745862,0.9022118000000012,9.89490985,8.999999999999999e-08,0.0,0.0,0.0,8.999999999999999e-08,0.0,0.0,0.0,8.999999999999999e-08
1729403429.9257257,2487,1729403429,923768448,base_link,-0.03919293089451628,0.017810437749354535,-0.3609008292206367,-0.9316100546596364,1.0,0.0,0.0,0.0,1.0,0.0,0.0,0.0,1.0,-0.0006293311016634107,0.0010542524978518486,0.0006532662082463502,1.2184696791468346e-07,0.0,0.0,0.0,1.2184696791468346e-07,0.0,0.0,0.0,1.2184696791468346e-07,0.26477955,0.9022118000000012,9.8851032,8.999999999999999e-08,0.0,0.0,0.0,8.999999999999999e-08,0.0,0.0,0.0,8.999999999999999e-08
1729403430.0258331,2488,1729403430,23761792,base_link,-0.03923038227868995,0.017819254533870014,-0.36090890215272253,-0.9316051822639466,1.0,0.0,0.0,0.0,1.0,0.0,0.0,0.0,1.0,0.0008630420779809356,-0.0007241256535053254,-0.0010714477393776178,1.2184696791468346e-07,0.0,0.0,0.0,1.2184696791468346e-07,0.0,0.0,0.0,1.2184696791468346e-07,0.28439285000000003,0.9218251000000013,9.87529655,8.999999999999999e-08,0.0,0.0,0.0,8.999999999999999e-08,0.0,0.0,0.0,8.999999999999999e-08
1729403430.128764,2489,1729403430,123758976,base_link,-0.039216907632909415,0.017823572922165805,-0.36091760324688754,-0.9316022960848274,1.0,0.0,0.0,0.0,1.0,0.0,0.0,0.0,1.0,-0.0010347635252401233,0.00047793242265470337,0.0009706415585242211,1.2184696791468346e-07,0.0,0.0,0.0,1.2184696791468346e-07,0.0,0.0,0.0,1.2184696791468346e-07,0.24516625,0.9316317500000013,9.85568325,8.999999999999999e-08,0.0,0.0,0.0,8.999999999999999e-08,0.0,0.0,0.0,8.999999999999999e-08
1729403430.2281609,2490,1729403430,223751040,base_link,-0.039174282540401194,0.017825917121288306,-0.3609281194067507,-0.9315999704206392,1.0,0.0,0.0,0.0,1.0,0.0,0.0,0.0,1.0,-0.001363676507025957,-0.00027910168864764284,-0.0009939497103914618,1.2184696791468346e-07,0.0,0.0,0.0,1.2184696791468346e-07,0.0,0.0,0.0,1.2184696791468346e-07,0.26477955,0.9218251000000013,9.85568325,8.999999999999999e-08,0.0,0.0,0.0,8.999999999999999e-08,0.0,0.0,0.0,8.999999999999999e-08
1729403430.326368,2491,1729403430,323746432,base_link,-0.03916513246262759,0.017816511240609994,-0.360954640514753,-0.9315902596191435,1.0,0.0,0.0,0.0,1.0,0.0,0.0,0.0,1.0,0.0011441059177741408,0.0024957102723419666,0.0011589445639401672,1.2184696791468346e-07,0.0,0.0,0.0,1.2184696791468346e-07,0.0,0.0,0.0,1.2184696791468346e-07,0.24516625,0.9022118000000012,9.87529655,8.999999999999999e-08,0.0,0.0,0.0,8.999999999999999e-08,0.0,0.0,0.0,8.999999999999999e-08
1729403430.426007,2492,1729403430,423738496,base_link,-0.039137541115308844,0.017841762642177416,-0.3609616902596633,-0.9315882043833288,1.0,0.0,0.0,0.0,1.0,0.0,0.0,0.0,1.0,-0.0005404148250818253,0.000707496248651296,0.0008462318801321088,1.2184696791468346e-07,0.0,0.0,0.0,1.2184696791468346e-07,0.0,0.0,0.0,1.2184696791468346e-07,0.26477955,0.9218251000000013,9.87529655,8.999999999999999e-08,0.0,0.0,0.0,8.999999999999999e-08,0.0,0.0,0.0,8.999999999999999e-08
1729403430.5257351,2493,1729403430,523735424,base_link,-0.039109028550111335,0.017841976402990446,-0.3609587657351615,-0.9315905308679615,1.0,0.0,0.0,0.0,1.0,0.0,0.0,0.0,1.0,2.8625061531784013e-05,-0.00010370199015596879,0.00026752310805022717,1.2184696791468346e-07,0.0,0.0,0.0,1.2184696791468346e-07,0.0,0.0,0.0,1.2184696791468346e-07,0.2745862,0.9022118000000012,9.8851032,8.999999999999999e-08,0.0,0.0,0.0,8.999999999999999e-08,0.0,0.0,0.0,8.999999999999999e-08
1729403430.6257973,2494,1729403430,623732352,base_link,-0.03907358526278624,0.017835973549547413,-0.3609592343163738,-0.9315919515238358,1.0,0.0,0.0,0.0,1.0,0.0,0.0,0.0,1.0,-0.0011344541562721133,-0.0007993109757080673,0.0006797751411795617,1.2184696791468346e-07,0.0,0.0,0.0,1.2184696791468346e-07,0.0,0.0,0.0,1.2184696791468346e-07,0.26477955,0.9316317500000013,9.89490985,8.999999999999999e-08,0.0,0.0,0.0,8.999999999999999e-08,0.0,0.0,0.0,8.999999999999999e-08
1729403430.7259662,2495,1729403430,723729536,base_link,-0.03908784834973418,0.017845668014438706,-0.36097064412429236,-0.9315867465378628,1.0,0.0,0.0,0.0,1.0,0.0,0.0,0.0,1.0,0.00026140271802432835,0.0012851109495386481,-3.696171188494206e-05,1.2184696791468346e-07,0.0,0.0,0.0,1.2184696791468346e-07,0.0,0.0,0.0,1.2184696791468346e-07,0.24516625,0.9218251000000013,9.8654899,8.999999999999999e-08,0.0,0.0,0.0,8.999999999999999e-08,0.0,0.0,0.0,8.999999999999999e-08
1729403430.8258202,2496,1729403430,823725440,base_link,-0.03912542568881353,0.017852745256186846,-0.3609758981638295,-0.9315829976423483,1.0,0.0,0.0,0.0,1.0,0.0,0.0,0.0,1.0,0.0003515572170726955,0.0013582577230408788,0.00029191494104452415,1.2184696791468346e-07,0.0,0.0,0.0,1.2184696791468346e-07,0.0,0.0,0.0,1.2184696791468346e-07,0.26477955,0.9120184500000013,9.85568325,8.999999999999999e-08,0.0,0.0,0.0,8.999999999999999e-08,0.0,0.0,0.0,8.999999999999999e-08
1729403430.9258401,2497,1729403430,923721344,base_link,-0.03917736880276284,0.017867613788147288,-0.3609897717058322,-0.9315751536376338,1.0,0.0,0.0,0.0,1.0,0.0,0.0,0.0,1.0,0.0006167779210954905,-0.0005497570964507758,0.0013107440900057554,1.2184696791468346e-07,0.0,0.0,0.0,1.2184696791468346e-07,0.0,0.0,0.0,1.2184696791468346e-07,0.26477955,0.9218251000000013,9.9047165,8.999999999999999e-08,0.0,0.0,0.0,8.999999999999999e-08,0.0,0.0,0.0,8.999999999999999e-08
1729403431.0257921,2498,1729403431,23715456,base_link,-0.039203717699460655,0.017887439325778784,-0.3610104376310106,-0.9315656562767725,1.0,0.0,0.0,0.0,1.0,0.0,0.0,0.0,1.0,0.00042688800022006035,-0.0005400463123805821,0.0003745255526155234,1.2184696791468346e-07,0.0,0.0,0.0,1.2184696791468346e-07,0.0,0.0,0.0,1.2184696791468346e-07,0.2549729,0.9022118000000012,9.8654899,8.999999999999999e-08,0.0,0.0,0.0,8.999999999999999e-08,0.0,0.0,0.0,8.999999999999999e-08
1729403431.1260254,2499,1729403431,123708032,base_link,-0.03918313571972759,0.017882400034356545,-0.36102724322432783,-0.9315601061091134,1.0,0.0,0.0,0.0,1.0,0.0,0.0,0.0,1.0,-0.0003826990141533315,2.6966012228513204e-05,0.0005506069865077734,1.2184696791468346e-07,0.0,0.0,0.0,1.2184696791468346e-07,0.0,0.0,0.0,1.2184696791468346e-07,0.26477955,0.9120184500000013,9.8654899,8.999999999999999e-08,0.0,0.0,0.0,8.999999999999999e-08,0.0,0.0,0.0,8.999999999999999e-08
1729403431.2304165,2500,1729403431,223700864,base_link,-0.039154131248354,0.017881879976045602,-0.36102979631018156,-0.9315603461670842,1.0,0.0,0.0,0.0,1.0,0.0,0.0,0.0,1.0,0.00018286387785337865,-0.0011613820679485798,5.809884169138982e-05,1.2184696791468346e-07,0.0,0.0,0.0,1.2184696791468346e-07,0.0,0.0,0.0,1.2184696791468346e-07,0.2549729,0.9120184500000013,9.8851032,8.999999999999999e-08,0.0,0.0,0.0,8.999999999999999e-08,0.0,0.0,0.0,8.999999999999999e-08
1729403431.326203,2501,1729403431,323698048,base_link,-0.03916024739777001,0.01789489155714115,-0.3610333338710175,-0.9315584682207994,1.0,0.0,0.0,0.0,1.0,0.0,0.0,0.0,1.0,0.0009519172599539161,0.0002043577696895227,0.00011702494521159676,1.2184696791468346e-07,0.0,0.0,0.0,1.2184696791468346e-07,0.0,0.0,0.0,1.2184696791468346e-07,0.2549729,0.9316317500000013,9.8851032,8.999999999999999e-08,0.0,0.0,0.0,8.999999999999999e-08,0.0,0.0,0.0,8.999999999999999e-08
1729403431.426011,2502,1729403431,423694976,base_link,-0.039165196738416876,0.017917095641555025,-0.3610500062674556,-0.9315513716497243,1.0,0.0,0.0,0.0,1.0,0.0,0.0,0.0,1.0,-0.0009008211782202125,0.0006744139827787877,0.0008884459384717046,1.2184696791468346e-07,0.0,0.0,0.0,1.2184696791468346e-07,0.0,0.0,0.0,1.2184696791468346e-07,0.2549729,0.9218251000000013,9.8654899,8.999999999999999e-08,0.0,0.0,0.0,8.999999999999999e-08,0.0,0.0,0.0,8.999999999999999e-08
1729403431.5258834,2503,1729403431,523691392,base_link,-0.03920608455329108,0.01795465399498017,-0.3610822461443107,-0.931536432381096,1.0,0.0,0.0,0.0,1.0,0.0,0.0,0.0,1.0,0.0002620154700707644,-0.0007973851170390843,0.0012241884833201766,1.2184696791468346e-07,0.0,0.0,0.0,1.2184696791468346e-07,0.0,0.0,0.0,1.2184696791468346e-07,0.24516625,0.9120184500000013,9.8654899,8.999999999999999e-08,0.0,0.0,0.0,8.999999999999999e-08,0.0,0.0,0.0,8.999999999999999e-08
1729403431.6259627,2504,1729403431,623683968,base_link,-0.03921974431404722,0.017965846649266155,-0.3610887153248109,-0.9315331339652893,1.0,0.0,0.0,0.0,1.0,0.0,0.0,0.0,1.0,0.000645389431156218,-0.0007848898530937731,-0.00011700810864567747,1.2184696791468346e-07,0.0,0.0,0.0,1.2184696791468346e-07,0.0,0.0,0.0,1.2184696791468346e-07,0.26477955,0.9120184500000013,9.8654899,8.999999999999999e-08,0.0,0.0,0.0,8.999999999999999e-08,0.0,0.0,0.0,8.999999999999999e-08
1729403431.7259493,2505,1729403431,723676544,base_link,-0.03922094861320238,0.01793575474379272,-0.36110139777520295,-0.9315287469619203,1.0,0.0,0.0,0.0,1.0,0.0,0.0,0.0,1.0,0.0003627476398833096,0.0003994891594629735,4.784222983289505e-05,1.2184696791468346e-07,0.0,0.0,0.0,1.2184696791468346e-07,0.0,0.0,0.0,1.2184696791468346e-07,0.26477955,0.9218251000000013,9.87529655,8.999999999999999e-08,0.0,0.0,0.0,8.999999999999999e-08,0.0,0.0,0.0,8.999999999999999e-08
1729403431.8259327,2506,1729403431,823673984,base_link,-0.03922705983925407,0.01790008270994611,-0.36112096805938915,-0.9315215892523342,1.0,0.0,0.0,0.0,1.0,0.0,0.0,0.0,1.0,0.00028856631251983345,0.0005855883937329055,0.00100036826916039,1.2184696791468346e-07,0.0,0.0,0.0,1.2184696791468346e-07,0.0,0.0,0.0,1.2184696791468346e-07,0.2549729,0.9414384000000012,9.8654899,8.999999999999999e-08,0.0,0.0,0.0,8.999999999999999e-08,0.0,0.0,0.0,8.999999999999999e-08
1729403431.9260378,2507,1729403431,923666816,base_link,-0.039244308229335494,0.01791216544493382,-0.3611382710748123,-0.9315139224755417,1.0,0.0,0.0,0.0,1.0,0.0,0.0,0.0,1.0,0.0006432433146983385,-0.0009666279074735941,-0.0008728588582016527,1.2184696791468346e-07,0.0,0.0,0.0,1.2184696791468346e-07,0.0,0.0,0.0,1.2184696791468346e-07,0.2549729,0.9218251000000013,9.87529655,8.999999999999999e-08,0.0,0.0,0.0,8.999999999999999e-08,0.0,0.0,0.0,8.999999999999999e-08
1729403432.0261192,2508,1729403432,23659904,base_link,-0.03926095575570402,0.01792942603006776,-0.36114894669843056,-0.9315087500039895,1.0,0.0,0.0,0.0,1.0,0.0,0.0,0.0,1.0,0.0006576774758286774,-0.0005221023457124827,0.0016225102590397,1.2184696791468346e-07,0.0,0.0,0.0,1.2184696791468346e-07,0.0,0.0,0.0,1.2184696791468346e-07,0.26477955,0.9218251000000013,9.8654899,8.999999999999999e-08,0.0,0.0,0.0,8.999999999999999e-08,0.0,0.0,0.0,8.999999999999999e-08
1729403432.126497,2509,1729403432,123657088,base_link,-0.03929077354380641,0.017940026684824306,-0.3611610274141065,-0.9315026048455604,1.0,0.0,0.0,0.0,1.0,0.0,0.0,0.0,1.0,0.00044487995910458267,-6.271075108088553e-05,1.6285703168250697e-06,1.2184696791468346e-07,0.0,0.0,0.0,1.2184696791468346e-07,0.0,0.0,0.0,1.2184696791468346e-07,0.2745862,0.9218251000000013,9.8851032,8.999999999999999e-08,0.0,0.0,0.0,8.999999999999999e-08,0.0,0.0,0.0,8.999999999999999e-08
1729403432.2263243,2510,1729403432,223652480,base_link,-0.039320107086723344,0.017949125564125097,-0.36116619898677715,-0.9314991866768405,1.0,0.0,0.0,0.0,1.0,0.0,0.0,0.0,1.0,0.0006364098517224193,-0.0005614243564195931,0.00033224400249309843,1.2184696791468346e-07,0.0,0.0,0.0,1.2184696791468346e-07,0.0,0.0,0.0,1.2184696791468346e-07,0.2549729,0.9316317500000013,9.89490985,8.999999999999999e-08,0.0,0.0,0.0,8.999999999999999e-08,0.0,0.0,0.0,8.999999999999999e-08
1729403432.3261986,2511,1729403432,323645312,base_link,-0.039362053943613494,0.017963136961128542,-0.36118933393042063,-0.9314881746295842,1.0,0.0,0.0,0.0,1.0,0.0,0.0,0.0,1.0,0.00026305526262149215,0.00011231950338697074,0.001068890211172402,1.2184696791468346e-07,0.0,0.0,0.0,1.2184696791468346e-07,0.0,0.0,0.0,1.2184696791468346e-07,0.26477955,0.9120184500000013,9.8654899,8.999999999999999e-08,0.0,0.0,0.0,8.999999999999999e-08,0.0,0.0,0.0,8.999999999999999e-08
1729403432.424961,2512,1729403432,423638400,base_link,-0.03938949443952903,0.01798940265523445,-0.3612143062885767,-0.9314768242164528,1.0,0.0,0.0,0.0,1.0,0.0,0.0,0.0,1.0,-0.0006932038231752813,-0.00043387908954173326,-3.570084663806478e-05,1.2184696791468346e-07,0.0,0.0,0.0,1.2184696791468346e-07,0.0,0.0,0.0,1.2184696791468346e-07,0.26477955,0.9218251000000013,9.87529655,8.999999999999999e-08,0.0,0.0,0.0,8.999999999999999e-08,0.0,0.0,0.0,8.999999999999999e-08
1729403432.526704,2513,1729403432,523635840,base_link,-0.039413479508467554,0.01798413043908505,-0.36123357239839476,-0.9314684400760335,1.0,0.0,0.0,0.0,1.0,0.0,0.0,0.0,1.0,0.00016592082101851702,0.0007496620528399944,-0.0002620666928123684,1.2184696791468346e-07,0.0,0.0,0.0,1.2184696791468346e-07,0.0,0.0,0.0,1.2184696791468346e-07,0.2549729,0.9120184500000013,9.8654899,8.999999999999999e-08,0.0,0.0,0.0,8.999999999999999e-08,0.0,0.0,0.0,8.999999999999999e-08
1729403432.625607,2514,1729403432,623633536,base_link,-0.03941743114465864,0.017984018307582648,-0.36126416872173145,-0.9314564088594083,1.0,0.0,0.0,0.0,1.0,0.0,0.0,0.0,1.0,-0.0007077963091433048,-0.0005306303501129149,0.0006236854824237527,1.2184696791468346e-07,0.0,0.0,0.0,1.2184696791468346e-07,0.0,0.0,0.0,1.2184696791468346e-07,0.2745862,0.9218251000000013,9.85568325,8.999999999999999e-08,0.0,0.0,0.0,8.999999999999999e-08,0.0,0.0,0.0,8.999999999999999e-08
1729403432.7294927,2515,1729403432,723631232,base_link,-0.03940008025016648,0.017974136222059678,-0.36127575186592387,-0.9314528411127763,1.0,0.0,0.0,0.0,1.0,0.0,0.0,0.0,1.0,6.247972487471998e-05,-8.947266906034062e-06,0.0011347121326252818,1.2184696791468346e-07,0.0,0.0,0.0,1.2184696791468346e-07,0.0,0.0,0.0,1.2184696791468346e-07,0.2745862,0.9316317500000013,9.89490985,8.999999999999999e-08,0.0,0.0,0.0,8.999999999999999e-08,0.0,0.0,0.0,8.999999999999999e-08
1729403432.8251476,2516,1729403432,823627392,base_link,-0.03935761283228513,0.01798516859272361,-0.3612781563731934,-0.9314534909218077,1.0,0.0,0.0,0.0,1.0,0.0,0.0,0.0,1.0,-0.0006782666896469891,0.00012100351887056615,0.0008371265139430761,1.2184696791468346e-07,0.0,0.0,0.0,1.2184696791468346e-07,0.0,0.0,0.0,1.2184696791468346e-07,0.26477955,0.9218251000000013,9.8654899,8.999999999999999e-08,0.0,0.0,0.0,8.999999999999999e-08,0.0,0.0,0.0,8.999999999999999e-08
1729403432.9274876,2517,1729403432,923623040,base_link,-0.039339723153172,0.017987704187042455,-0.3613008642881126,-0.931445389781373,1.0,0.0,0.0,0.0,1.0,0.0,0.0,0.0,1.0,-0.0010204385034739971,-0.00017944911087397472,0.0010591374011710286,1.2184696791468346e-07,0.0,0.0,0.0,1.2184696791468346e-07,0.0,0.0,0.0,1.2184696791468346e-07,0.2745862,0.9218251000000013,9.87529655,8.999999999999999e-08,0.0,0.0,0.0,8.999999999999999e-08,0.0,0.0,0.0,8.999999999999999e-08
1729403433.0251648,2518,1729403433,23616640,base_link,-0.03935758337047294,0.017979565492474085,-0.3613194901640993,-0.9314375673567679,1.0,0.0,0.0,0.0,1.0,0.0,0.0,0.0,1.0,0.00021456708782352507,-9.035065886564537e-05,0.0012880635913461447,1.2184696791468346e-07,0.0,0.0,0.0,1.2184696791468346e-07,0.0,0.0,0.0,1.2184696791468346e-07,0.2549729,0.9316317500000013,9.85568325,8.999999999999999e-08,0.0,0.0,0.0,8.999999999999999e-08,0.0,0.0,0.0,8.999999999999999e-08
1729403433.1251886,2519,1729403433,123611776,base_link,-0.039342314153283084,0.017975754088595898,-0.3613597687541882,-0.9314226602933442,1.0,0.0,0.0,0.0,1.0,0.0,0.0,0.0,1.0,-0.00015800345863681287,0.0009150816476903858,0.001422526082023978,1.2184696791468346e-07,0.0,0.0,0.0,1.2184696791468346e-07,0.0,0.0,0.0,1.2184696791468346e-07,0.26477955,0.9120184500000013,9.87529655,8.999999999999999e-08,0.0,0.0,0.0,8.999999999999999e-08,0.0,0.0,0.0,8.999999999999999e-08
1729403433.232679,2520,1729403433,223608960,base_link,-0.03933800790141518,0.01798712361617269,-0.3613886717121412,-0.9314114088180898,1.0,0.0,0.0,0.0,1.0,0.0,0.0,0.0,1.0,-0.00022644725686404854,-0.0004087374545633791,0.0011993251973763108,1.2184696791468346e-07,0.0,0.0,0.0,1.2184696791468346e-07,0.0,0.0,0.0,1.2184696791468346e-07,0.2549729,0.9120184500000013,9.8851032,8.999999999999999e-08,0.0,0.0,0.0,8.999999999999999e-08,0.0,0.0,0.0,8.999999999999999e-08
1729403433.3252008,2521,1729403433,323602304,base_link,-0.03933164090932503,0.01800638469198932,-0.3614185997647847,-0.9313996928696971,1.0,0.0,0.0,0.0,1.0,0.0,0.0,0.0,1.0,-0.0006061925669200718,-0.00035913684405386426,0.0018607397796586156,1.2184696791468346e-07,0.0,0.0,0.0,1.2184696791468346e-07,0.0,0.0,0.0,1.2184696791468346e-07,0.26477955,0.9316317500000013,9.87529655,8.999999999999999e-08,0.0,0.0,0.0,8.999999999999999e-08,0.0,0.0,0.0,8.999999999999999e-08
1729403433.4253547,2522,1729403433,423598720,base_link,-0.039309485552258355,0.01802463534504136,-0.3614368302661086,-0.93139320085208,1.0,0.0,0.0,0.0,1.0,0.0,0.0,0.0,1.0,-4.374982381705195e-06,7.287939661182463e-05,1.2669130228459827e-05,1.2184696791468346e-07,0.0,0.0,0.0,1.2184696791468346e-07,0.0,0.0,0.0,1.2184696791468346e-07,0.26477955,0.9120184500000013,9.85568325,8.999999999999999e-08,0.0,0.0,0.0,8.999999999999999e-08,0.0,0.0,0.0,8.999999999999999e-08
1729403433.5252388,2523,1729403433,523593856,base_link,-0.039280756364821895,0.018039079799512345,-0.361451098709627,-0.9313885961407289,1.0,0.0,0.0,0.0,1.0,0.0,0.0,0.0,1.0,0.00024698476772755384,-0.0003640751529019325,0.0010867894161492586,1.2184696791468346e-07,0.0,0.0,0.0,1.2184696791468346e-07,0.0,0.0,0.0,1.2184696791468346e-07,0.2549729,0.9218251000000013,9.8654899,8.999999999999999e-08,0.0,0.0,0.0,8.999999999999999e-08,0.0,0.0,0.0,8.999999999999999e-08
1729403433.626228,2524,1729403433,623588992,base_link,-0.039260511987744294,0.01805353980441171,-0.36146089852523283,-0.9313853663958449,1.0,0.0,0.0,0.0,1.0,0.0,0.0,0.0,1.0,0.00025948684196919203,-0.0005830399459227921,-0.0008231241954490541,1.2184696791468346e-07,0.0,0.0,0.0,1.2184696791468346e-07,0.0,0.0,0.0,1.2184696791468346e-07,0.26477955,0.9316317500000013,9.8458766,8.999999999999999e-08,0.0,0.0,0.0,8.999999999999999e-08,0.0,0.0,0.0,8.999999999999999e-08
1729403433.7251465,2525,1729403433,723584128,base_link,-0.039182925505928584,0.018024329685236776,-0.36145207579124855,-0.9313926233304579,1.0,0.0,0.0,0.0,1.0,0.0,0.0,0.0,1.0,-0.001622765907086432,9.49402237893081e-05,-0.001016372931189835,1.2184696791468346e-07,0.0,0.0,0.0,1.2184696791468346e-07,0.0,0.0,0.0,1.2184696791468346e-07,0.26477955,0.9218251000000013,9.8458766,8.999999999999999e-08,0.0,0.0,0.0,8.999999999999999e-08,0.0,0.0,0.0,8.999999999999999e-08
1729403433.8251812,2526,1729403433,823577472,base_link,-0.03911550174951641,0.018022838794156365,-0.3614593154034045,-0.9313926766476027,1.0,0.0,0.0,0.0,1.0,0.0,0.0,0.0,1.0,-0.0001538769283797592,0.0004363906919024884,-0.0002318467304576189,1.2184696791468346e-07,0.0,0.0,0.0,1.2184696791468346e-07,0.0,0.0,0.0,1.2184696791468346e-07,0.2549729,0.9022118000000012,9.85568325,8.999999999999999e-08,0.0,0.0,0.0,8.999999999999999e-08,0.0,0.0,0.0,8.999999999999999e-08
1729403433.9252303,2527,1729403433,923571072,base_link,-0.03911275587675292,0.018016520931479735,-0.3614810662179525,-0.9313844727432294,1.0,0.0,0.0,0.0,1.0,0.0,0.0,0.0,1.0,0.00016406529175583273,9.953253902494903e-05,-0.00032415217719972134,1.2184696791468346e-07,0.0,0.0,0.0,1.2184696791468346e-07,0.0,0.0,0.0,1.2184696791468346e-07,0.2745862,0.9120184500000013,9.89490985,8.999999999999999e-08,0.0,0.0,0.0,8.999999999999999e-08,0.0,0.0,0.0,8.999999999999999e-08
1729403434.025528,2528,1729403434,23564416,base_link,-0.0391388270629781,0.018000550200951163,-0.3614923135174107,-0.931379321048319,1.0,0.0,0.0,0.0,1.0,0.0,0.0,0.0,1.0,0.0015268330462276936,0.0002036378718912602,0.0005048929597251117,1.2184696791468346e-07,0.0,0.0,0.0,1.2184696791468346e-07,0.0,0.0,0.0,1.2184696791468346e-07,0.2549729,0.8924051500000013,9.87529655,8.999999999999999e-08,0.0,0.0,0.0,8.999999999999999e-08,0.0,0.0,0.0,8.999999999999999e-08
1729403434.125164,2529,1729403434,123558016,base_link,-0.03916549178717339,0.01798272243798152,-0.36149856055642027,-0.9313761198691017,1.0,0.0,0.0,0.0,1.0,0.0,0.0,0.0,1.0,3.881147858919576e-05,-8.16880274214781e-05,0.0006785577861592174,1.2184696791468346e-07,0.0,0.0,0.0,1.2184696791468346e-07,0.0,0.0,0.0,1.2184696791468346e-07,0.26477955,0.9022118000000012,9.87529655,8.999999999999999e-08,0.0,0.0,0.0,8.999999999999999e-08,0.0,0.0,0.0,8.999999999999999e-08
1729403434.2268686,2530,1729403434,223551360,base_link,-0.039195620932175,0.017986361527646134,-0.36149031910527335,-0.9313779808927766,1.0,0.0,0.0,0.0,1.0,0.0,0.0,0.0,1.0,0.0002096262905979529,-0.00039814488263800735,0.00043303769780322915,1.2184696791468346e-07,0.0,0.0,0.0,1.2184696791468346e-07,0.0,0.0,0.0,1.2184696791468346e-07,0.28439285000000003,0.9316317500000013,9.8851032,8.999999999999999e-08,0.0,0.0,0.0,8.999999999999999e-08,0.0,0.0,0.0,8.999999999999999e-08
1729403434.3254776,2531,1729403434,323543936,base_link,-0.03920874729343609,0.01797689594990723,-0.3614792076202148,-0.9313819237058165,1.0,0.0,0.0,0.0,1.0,0.0,0.0,0.0,1.0,-0.00025550066493451595,-3.598638795665447e-05,0.0014690544921904802,1.2184696791468346e-07,0.0,0.0,0.0,1.2184696791468346e-07,0.0,0.0,0.0,1.2184696791468346e-07,0.24516625,0.9022118000000012,9.8654899,8.999999999999999e-08,0.0,0.0,0.0,8.999999999999999e-08,0.0,0.0,0.0,8.999999999999999e-08
1729403434.4251478,2532,1729403434,423537280,base_link,-0.039233330601535985,0.017954205554477146,-0.36147825498206637,-0.9313816958948347,1.0,0.0,0.0,0.0,1.0,0.0,0.0,0.0,1.0,-7.816537981852889e-05,0.0017102574929594996,0.001152273151092231,1.2184696791468346e-07,0.0,0.0,0.0,1.2184696791468346e-07,0.0,0.0,0.0,1.2184696791468346e-07,0.2549729,0.9022118000000012,9.8851032,8.999999999999999e-08,0.0,0.0,0.0,8.999999999999999e-08,0.0,0.0,0.0,8.999999999999999e-08
1729403434.525196,2533,1729403434,523532672,base_link,-0.03924508493906889,0.01794115806730162,-0.36148387023783085,-0.9313792727526248,1.0,0.0,0.0,0.0,1.0,0.0,0.0,0.0,1.0,-0.0002783896343316883,0.0006573683349415661,0.0008407519781030713,1.2184696791468346e-07,0.0,0.0,0.0,1.2184696791468346e-07,0.0,0.0,0.0,1.2184696791468346e-07,0.26477955,0.9218251000000013,9.8654899,8.999999999999999e-08,0.0,0.0,0.0,8.999999999999999e-08,0.0,0.0,0.0,8.999999999999999e-08
1729403434.625428,2534,1729403434,623529344,base_link,-0.03923385100092024,0.01793279826545425,-0.3614847563325791,-0.9313795631326596,1.0,0.0,0.0,0.0,1.0,0.0,0.0,0.0,1.0,-0.0006061778403818607,0.0008994678501039742,-0.0006871555815450848,1.2184696791468346e-07,0.0,0.0,0.0,1.2184696791468346e-07,0.0,0.0,0.0,1.2184696791468346e-07,0.26477955,0.9120184500000013,9.89490985,8.999999999999999e-08,0.0,0.0,0.0,8.999999999999999e-08,0.0,0.0,0.0,8.999999999999999e-08
1729403434.7289805,2535,1729403434,724523200,base_link,-0.03927722658669205,0.017909269245622448,-0.36149665836367484,-0.9313735681984121,1.0,0.0,0.0,0.0,1.0,0.0,0.0,0.0,1.0,0.0007252648938447237,0.0001838012103689834,-0.0003791578928939998,1.2184696791468346e-07,0.0,0.0,0.0,1.2184696791468346e-07,0.0,0.0,0.0,1.2184696791468346e-07,0.26477955,0.9120184500000013,9.8654899,8.999999999999999e-08,0.0,0.0,0.0,8.999999999999999e-08,0.0,0.0,0.0,8.999999999999999e-08
1729403434.8252797,2536,1729403434,823519872,base_link,-0.03930892990526234,0.017907185864508728,-0.36149358928624764,-0.9313734619523272,1.0,0.0,0.0,0.0,1.0,0.0,0.0,0.0,1.0,0.00046442676102742553,5.931309715379012e-06,-0.0001457392645534128,1.2184696791468346e-07,0.0,0.0,0.0,1.2184696791468346e-07,0.0,0.0,0.0,1.2184696791468346e-07,0.26477955,0.9218251000000013,9.87529655,8.999999999999999e-08,0.0,0.0,0.0,8.999999999999999e-08,0.0,0.0,0.0,8.999999999999999e-08
1729403434.92523,2537,1729403434,923515264,base_link,-0.03933323632940779,0.017876751410686127,-0.361505015831956,-0.9313685853662839,1.0,0.0,0.0,0.0,1.0,0.0,0.0,0.0,1.0,0.0007516734185628593,0.0005822072271257638,-0.000582971377298236,1.2184696791468346e-07,0.0,0.0,0.0,1.2184696791468346e-07,0.0,0.0,0.0,1.2184696791468346e-07,0.26477955,0.9218251000000013,9.87529655,8.999999999999999e-08,0.0,0.0,0.0,8.999999999999999e-08,0.0,0.0,0.0,8.999999999999999e-08
1729403435.025317,2538,1729403435,23509120,base_link,-0.03936303025627378,0.017882063622292,-0.36150835667041503,-0.9313659279290327,1.0,0.0,0.0,0.0,1.0,0.0,0.0,0.0,1.0,-0.000759332615416497,-0.0009734367486089469,-0.0006351814954541623,1.2184696791468346e-07,0.0,0.0,0.0,1.2184696791468346e-07,0.0,0.0,0.0,1.2184696791468346e-07,0.2745862,0.9022118000000012,9.87529655,8.999999999999999e-08,0.0,0.0,0.0,8.999999999999999e-08,0.0,0.0,0.0,8.999999999999999e-08
1729403435.1253245,2539,1729403435,123504512,base_link,-0.03936996868576747,0.017885479739001908,-0.3614971679137511,-0.9313699118881417,1.0,0.0,0.0,0.0,1.0,0.0,0.0,0.0,1.0,-0.00026446866104379296,0.00010164364357478922,0.0004613277269527316,1.2184696791468346e-07,0.0,0.0,0.0,1.2184696791468346e-07,0.0,0.0,0.0,1.2184696791468346e-07,0.26477955,0.9218251000000013,9.8851032,8.999999999999999e-08,0.0,0.0,0.0,8.999999999999999e-08,0.0,0.0,0.0,8.999999999999999e-08
1729403435.2255514,2540,1729403435,223498112,base_link,-0.03938207226590359,0.017891443191627866,-0.36150793766813566,-0.9313651054487146,1.0,0.0,0.0,0.0,1.0,0.0,0.0,0.0,1.0,0.0015695185866206884,4.397426528157663e-05,-0.00028246224974282086,1.2184696791468346e-07,0.0,0.0,0.0,1.2184696791468346e-07,0.0,0.0,0.0,1.2184696791468346e-07,0.26477955,0.9316317500000013,9.8654899,8.999999999999999e-08,0.0,0.0,0.0,8.999999999999999e-08,0.0,0.0,0.0,8.999999999999999e-08
1729403435.3254628,2541,1729403435,323490432,base_link,-0.03937044628866922,0.01789965313468813,-0.361508137893619,-0.931365361506094,1.0,0.0,0.0,0.0,1.0,0.0,0.0,0.0,1.0,0.00019215406791772693,0.00015739424270577737,0.0007297180127352476,1.2184696791468346e-07,0.0,0.0,0.0,1.2184696791468346e-07,0.0,0.0,0.0,1.2184696791468346e-07,0.2549729,0.9022118000000012,9.85568325,8.999999999999999e-08,0.0,0.0,0.0,8.999999999999999e-08,0.0,0.0,0.0,8.999999999999999e-08
1729403435.4254844,2542,1729403435,423484288,base_link,-0.039342380187672,0.01788222243546761,-0.3615270372087182,-0.9313595463670424,1.0,0.0,0.0,0.0,1.0,0.0,0.0,0.0,1.0,-0.00044492995948530734,0.0005133969825692476,0.0007162452675402163,1.2184696791468346e-07,0.0,0.0,0.0,1.2184696791468346e-07,0.0,0.0,0.0,1.2184696791468346e-07,0.24516625,0.9316317500000013,9.85568325,8.999999999999999e-08,0.0,0.0,0.0,8.999999999999999e-08,0.0,0.0,0.0,8.999999999999999e-08
1729403435.525432,2543,1729403435,523477120,base_link,-0.03934175605050485,0.017865389604528197,-0.36153993639211635,-0.9313548885783149,1.0,0.0,0.0,0.0,1.0,0.0,0.0,0.0,1.0,0.0003024747420568019,0.0001788759836927056,-0.00032218225533142686,1.2184696791468346e-07,0.0,0.0,0.0,1.2184696791468346e-07,0.0,0.0,0.0,1.2184696791468346e-07,0.2549729,0.9218251000000013,9.87529655,8.999999999999999e-08,0.0,0.0,0.0,8.999999999999999e-08,0.0,0.0,0.0,8.999999999999999e-08
1729403435.6255074,2544,1729403435,623473024,base_link,-0.039357409105800434,0.017835042497736833,-0.3615416989762056,-0.9313541246534431,1.0,0.0,0.0,0.0,1.0,0.0,0.0,0.0,1.0,-0.0003467008355073631,4.5101325667928884e-05,-0.000166941768839024,1.2184696791468346e-07,0.0,0.0,0.0,1.2184696791468346e-07,0.0,0.0,0.0,1.2184696791468346e-07,0.26477955,0.9218251000000013,9.87529655,8.999999999999999e-08,0.0,0.0,0.0,8.999999999999999e-08,0.0,0.0,0.0,8.999999999999999e-08
1729403435.7254121,2545,1729403435,723465600,base_link,-0.03936784432868031,0.017832712318964578,-0.3615640917494558,-0.9313450352912462,1.0,0.0,0.0,0.0,1.0,0.0,0.0,0.0,1.0,-0.00031866770586930215,0.000680694472976029,0.0008458984666503965,1.2184696791468346e-07,0.0,0.0,0.0,1.2184696791468346e-07,0.0,0.0,0.0,1.2184696791468346e-07,0.26477955,0.9218251000000013,9.87529655,8.999999999999999e-08,0.0,0.0,0.0,8.999999999999999e-08,0.0,0.0,0.0,8.999999999999999e-08
1729403435.8256147,2546,1729403435,823458176,base_link,-0.039381439347564134,0.01782515467782393,-0.3615705196900711,-0.9313421097462938,1.0,0.0,0.0,0.0,1.0,0.0,0.0,0.0,1.0,-0.0008559403941035271,-0.0002299449115525931,1.155296922661367e-05,1.2184696791468346e-07,0.0,0.0,0.0,1.2184696791468346e-07,0.0,0.0,0.0,1.2184696791468346e-07,0.26477955,0.9022118000000012,9.8458766,8.999999999999999e-08,0.0,0.0,0.0,8.999999999999999e-08,0.0,0.0,0.0,8.999999999999999e-08
1729403435.9255922,2547,1729403435,923454848,base_link,-0.039401562442644165,0.017827883696625853,-0.3615786381619337,-0.9313380545564209,1.0,0.0,0.0,0.0,1.0,0.0,0.0,0.0,1.0,0.0006885742186568677,0.0006629189010709523,-0.0008183986647054554,1.2184696791468346e-07,0.0,0.0,0.0,1.2184696791468346e-07,0.0,0.0,0.0,1.2184696791468346e-07,0.2745862,0.9120184500000013,9.8851032,8.999999999999999e-08,0.0,0.0,0.0,8.999999999999999e-08,0.0,0.0,0.0,8.999999999999999e-08
1729403436.0255692,2548,1729403436,23448960,base_link,-0.03942415090447587,0.017834238032519174,-0.36159292612908783,-0.9313314297567028,1.0,0.0,0.0,0.0,1.0,0.0,0.0,0.0,1.0,0.0014724149368703365,2.103133010677996e-05,0.00022615285706706345,1.2184696791468346e-07,0.0,0.0,0.0,1.2184696791468346e-07,0.0,0.0,0.0,1.2184696791468346e-07,0.2549729,0.9022118000000012,9.8654899,8.999999999999999e-08,0.0,0.0,0.0,8.999999999999999e-08,0.0,0.0,0.0,8.999999999999999e-08
1729403436.125426,2549,1729403436,123440768,base_link,-0.03944084157020986,0.017826284740541834,-0.361595285438979,-0.9313299593253113,1.0,0.0,0.0,0.0,1.0,0.0,0.0,0.0,1.0,0.0005599178257398307,-0.0001463400112697854,0.00034090643748641014,1.2184696791468346e-07,0.0,0.0,0.0,1.2184696791468346e-07,0.0,0.0,0.0,1.2184696791468346e-07,0.26477955,0.9218251000000013,9.87529655,8.999999999999999e-08,0.0,0.0,0.0,8.999999999999999e-08,0.0,0.0,0.0,8.999999999999999e-08
1729403436.2284286,2550,1729403436,223437696,base_link,-0.03945328735276252,0.017821525697322083,-0.36159868838720005,-0.931328202029519,1.0,0.0,0.0,0.0,1.0,0.0,0.0,0.0,1.0,0.00024874150403775275,0.00015716279449407017,0.00042731978464871645,1.2184696791468346e-07,0.0,0.0,0.0,1.2184696791468346e-07,0.0,0.0,0.0,1.2184696791468346e-07,0.24516625,0.9120184500000013,9.8654899,8.999999999999999e-08,0.0,0.0,0.0,8.999999999999999e-08,0.0,0.0,0.0,8.999999999999999e-08
1729403436.3255856,2551,1729403436,323434112,base_link,-0.03944344643726811,0.017812259738765136,-0.36159984559740865,-0.9313283468251567,1.0,0.0,0.0,0.0,1.0,0.0,0.0,0.0,1.0,-0.0006715022027492523,0.00014618862769566482,0.0003882093296851963,1.2184696791468346e-07,0.0,0.0,0.0,1.2184696791468346e-07,0.0,0.0,0.0,1.2184696791468346e-07,0.2549729,0.9316317500000013,9.8458766,8.999999999999999e-08,0.0,0.0,0.0,8.999999999999999e-08,0.0,0.0,0.0,8.999999999999999e-08
1729403436.4254832,2552,1729403436,423433088,base_link,-0.039450405667992315,0.0178295682578164,-0.3616023354896498,-0.9313267541291839,1.0,0.0,0.0,0.0,1.0,0.0,0.0,0.0,1.0,-0.0003443906316533685,-0.00041509122820571054,0.0008795452304184437,1.2184696791468346e-07,0.0,0.0,0.0,1.2184696791468346e-07,0.0,0.0,0.0,1.2184696791468346e-07,0.24516625,0.9218251000000013,9.8851032,8.999999999999999e-08,0.0,0.0,0.0,8.999999999999999e-08,0.0,0.0,0.0,8.999999999999999e-08
1729403436.5255928,2553,1729403436,523429248,base_link,-0.03945292378451471,0.01783469071034998,-0.36159147896924,-0.9313307645240531,1.0,0.0,0.0,0.0,1.0,0.0,0.0,0.0,1.0,-0.00012504091137088835,-0.0005518745747394861,-0.0004886700189672409,1.2184696791468346e-07,0.0,0.0,0.0,1.2184696791468346e-07,0.0,0.0,0.0,1.2184696791468346e-07,0.2745862,0.9120184500000013,9.89490985,8.999999999999999e-08,0.0,0.0,0.0,8.999999999999999e-08,0.0,0.0,0.0,8.999999999999999e-08
1729403436.6258352,2554,1729403436,623421824,base_link,-0.03939356882292989,0.017849435840653523,-0.36158829200218406,-0.9313342318751667,1.0,0.0,0.0,0.0,1.0,0.0,0.0,0.0,1.0,-0.001048474689014256,-0.00035960596869699646,0.0009580624173395336,1.2184696791468346e-07,0.0,0.0,0.0,1.2184696791468346e-07,0.0,0.0,0.0,1.2184696791468346e-07,0.26477955,0.9316317500000013,9.87529655,8.999999999999999e-08,0.0,0.0,0.0,8.999999999999999e-08,0.0,0.0,0.0,8.999999999999999e-08
1729403436.725685,2555,1729403436,723416192,base_link,-0.039341983006061544,0.0178416103537783,-0.36158784357317186,-0.9313367364671267,1.0,0.0,0.0,0.0,1.0,0.0,0.0,0.0,1.0,0.000793050043284893,-0.0007213033968582749,0.0003726599388755859,1.2184696791468346e-07,0.0,0.0,0.0,1.2184696791468346e-07,0.0,0.0,0.0,1.2184696791468346e-07,0.2549729,0.9120184500000013,9.87529655,8.999999999999999e-08,0.0,0.0,0.0,8.999999999999999e-08,0.0,0.0,0.0,8.999999999999999e-08
1729403436.8258748,2556,1729403436,823413120,base_link,-0.03929377726337844,0.017831884845279818,-0.36160424725024104,-0.9313325889937638,1.0,0.0,0.0,0.0,1.0,0.0,0.0,0.0,1.0,0.00026262790197506547,-9.637912444304686e-05,-0.0008550091879442334,1.2184696791468346e-07,0.0,0.0,0.0,1.2184696791468346e-07,0.0,0.0,0.0,1.2184696791468346e-07,0.2745862,0.9316317500000013,9.87529655,8.999999999999999e-08,0.0,0.0,0.0,8.999999999999999e-08,0.0,0.0,0.0,8.999999999999999e-08
1729403436.9257011,2557,1729403436,923406208,base_link,-0.039316673271957224,0.01781381443690224,-0.3616063746245455,-0.931331142531445,1.0,0.0,0.0,0.0,1.0,0.0,0.0,0.0,1.0,-0.0008539953269064426,0.0009996541775763035,-0.0001223682338604705,1.2184696791468346e-07,0.0,0.0,0.0,1.2184696791468346e-07,0.0,0.0,0.0,1.2184696791468346e-07,0.2549729,0.9022118000000012,9.85568325,8.999999999999999e-08,0.0,0.0,0.0,8.999999999999999e-08,0.0,0.0,0.0,8.999999999999999e-08
1729403437.0258117,2558,1729403437,23400832,base_link,-0.039376618666619755,0.017809097689088636,-0.3616149973728412,-0.9313253521819989,1.0,0.0,0.0,0.0,1.0,0.0,0.0,0.0,1.0,0.0010390428360551596,-0.00037456120480783257,0.002039050916209817,1.2184696791468346e-07,0.0,0.0,0.0,1.2184696791468346e-07,0.0,0.0,0.0,1.2184696791468346e-07,0.26477955,0.9218251000000013,9.87529655,8.999999999999999e-08,0.0,0.0,0.0,8.999999999999999e-08,0.0,0.0,0.0,8.999999999999999e-08
1729403437.125668,2559,1729403437,123394432,base_link,-0.039397507500427524,0.017825159967102124,-0.36161138133297593,-0.9313255655061542,1.0,0.0,0.0,0.0,1.0,0.0,0.0,0.0,1.0,-0.00016578607028350234,-0.00014528806786984192,0.0011789730051532388,1.2184696791468346e-07,0.0,0.0,0.0,1.2184696791468346e-07,0.0,0.0,0.0,1.2184696791468346e-07,0.2745862,0.9022118000000012,9.87529655,8.999999999999999e-08,0.0,0.0,0.0,8.999999999999999e-08,0.0,0.0,0.0,8.999999999999999e-08
1729403437.2259939,2560,1729403437,223387520,base_link,-0.03938441271002073,0.01785544032387411,-0.36161431256070464,-0.9313244011823036,1.0,0.0,0.0,0.0,1.0,0.0,0.0,0.0,1.0,0.0009165715309791267,0.0003328575112391264,0.0005659944727085531,1.2184696791468346e-07,0.0,0.0,0.0,1.2184696791468346e-07,0.0,0.0,0.0,1.2184696791468346e-07,0.2549729,0.9120184500000013,9.8654899,8.999999999999999e-08,0.0,0.0,0.0,8.999999999999999e-08,0.0,0.0,0.0,8.999999999999999e-08
1729403437.3258128,2561,1729403437,323380608,base_link,-0.03936504736128275,0.017879021510667024,-0.36161598078386836,-0.9313241197766682,1.0,0.0,0.0,0.0,1.0,0.0,0.0,0.0,1.0,-0.00016681214037816972,0.00017824261158239107,0.000918433244805783,1.2184696791468346e-07,0.0,0.0,0.0,1.2184696791468346e-07,0.0,0.0,0.0,1.2184696791468346e-07,0.26477955,0.9218251000000013,9.8851032,8.999999999999999e-08,0.0,0.0,0.0,8.999999999999999e-08,0.0,0.0,0.0,8.999999999999999e-08
1729403437.4258776,2562,1729403437,423373696,base_link,-0.03936377347144852,0.017895438577956807,-0.361618105316965,-0.9313230333902192,1.0,0.0,0.0,0.0,1.0,0.0,0.0,0.0,1.0,-0.0006516678840853274,-0.0007331522647291421,0.0008992099319584669,1.2184696791468346e-07,0.0,0.0,0.0,1.2184696791468346e-07,0.0,0.0,0.0,1.2184696791468346e-07,0.2549729,0.9120184500000013,9.85568325,8.999999999999999e-08,0.0,0.0,0.0,8.999999999999999e-08,0.0,0.0,0.0,8.999999999999999e-08
1729403437.525812,2563,1729403437,523367040,base_link,-0.03937616215790591,0.01791202269401139,-0.3616433579864805,-0.9313123852505054,1.0,0.0,0.0,0.0,1.0,0.0,0.0,0.0,1.0,0.00020995833619963378,0.0007368592778220774,0.0006971838884055613,1.2184696791468346e-07,0.0,0.0,0.0,1.2184696791468346e-07,0.0,0.0,0.0,1.2184696791468346e-07,0.26477955,0.9022118000000012,9.85568325,8.999999999999999e-08,0.0,0.0,0.0,8.999999999999999e-08,0.0,0.0,0.0,8.999999999999999e-08
