Time,header.seq,header.stamp.secs,header.stamp.nsecs,header.frame_id,orientation.x,orientation.y,orientation.z,orientation.w,orientation_covariance_0,orientation_covariance_1,orientation_covariance_2,orientation_covariance_3,orientation_covariance_4,orientation_covariance_5,orientation_covariance_6,orientation_covariance_7,orientation_covariance_8,angular_velocity.x,angular_velocity.y,angular_velocity.z,angular_velocity_covariance_0,angular_velocity_covariance_1,angular_velocity_covariance_2,angular_velocity_covariance_3,angular_velocity_covariance_4,angular_velocity_covariance_5,angular_velocity_covariance_6,angular_velocity_covariance_7,angular_velocity_covariance_8,linear_acceleration.x,linear_acceleration.y,linear_acceleration.z,linear_acceleration_covariance_0,linear_acceleration_covariance_1,linear_acceleration_covariance_2,linear_acceleration_covariance_3,linear_acceleration_covariance_4,linear_acceleration_covariance_5,linear_acceleration_covariance_6,linear_acceleration_covariance_7,linear_acceleration_covariance_8
1737285472.7332337,12809,1737285462,733673152,base_link,-0.009021195688192884,0.01227750276610378,-0.986228386981294,-0.16468591216755218,1.0,0.0,0.0,0.0,1.0,0.0,0.0,0.0,1.0,0.18595053255558014,0.030249187722802166,0.03993830829858779,1.2184696791468346e-07,0.0,0.0,0.0,1.2184696791468346e-07,0.0,0.0,0.0,1.2184696791468346e-07,0.1372931,-0.19613299999999875,10.16949605,8.999999999999999e-08,0.0,0.0,0.0,8.999999999999999e-08,0.0,0.0,0.0,8.999999999999999e-08
1737285472.7332592,12810,1737285462,833673408,base_link,-0.0062184484525263746,0.01157737038187155,-0.9865418217136737,-0.16298015033662988,1.0,0.0,0.0,0.0,1.0,0.0,0.0,0.0,1.0,0.0762384682893753,-0.03746923804283141,0.09831829369068146,1.2184696791468346e-07,0.0,0.0,0.0,1.2184696791468346e-07,0.0,0.0,0.0,1.2184696791468346e-07,0.10787315,-0.15690639999999875,10.1596894,8.999999999999999e-08,0.0,0.0,0.0,8.999999999999999e-08,0.0,0.0,0.0,8.999999999999999e-08
1737285472.7334168,12811,1737285462,933672384,base_link,-0.005686453108616514,0.011074481337083872,-0.9871058789560478,-0.15958384581331092,1.0,0.0,0.0,0.0,1.0,0.0,0.0,0.0,1.0,-0.06767663359642029,-0.013055674731731396,0.15061983466148376,1.2184696791468346e-07,0.0,0.0,0.0,1.2184696791468346e-07,0.0,0.0,0.0,1.2184696791468346e-07,-0.02941995,-0.3138127999999988,10.0616229,8.999999999999999e-08,0.0,0.0,0.0,8.999999999999999e-08,0.0,0.0,0.0,8.999999999999999e-08
1737285472.7336023,12812,1737285463,33672640,base_link,-0.0038075970435537828,0.01253807718478669,-0.9878483421543862,-0.15486752961190076,1.0,0.0,0.0,0.0,1.0,0.0,0.0,0.0,1.0,0.026240073144435883,-0.05066900700330732,0.1772022545337677,1.2184696791468346e-07,0.0,0.0,0.0,1.2184696791468346e-07,0.0,0.0,0.0,1.2184696791468346e-07,0.0588399,-0.22555294999999878,10.07142955,8.999999999999999e-08,0.0,0.0,0.0,8.999999999999999e-08,0.0,0.0,0.0,8.999999999999999e-08
1737285472.7336657,12813,1737285463,133673152,base_link,-0.0013795517653282083,0.014497337249867964,-0.9888469938069984,-0.14822127677379027,1.0,0.0,0.0,0.0,1.0,0.0,0.0,0.0,1.0,-0.1774032562971115,0.038160540163517054,0.4290376901626587,1.2184696791468346e-07,0.0,0.0,0.0,1.2184696791468346e-07,0.0,0.0,0.0,1.2184696791468346e-07,-0.0392266,-0.32361944999999875,10.1596894,8.999999999999999e-08,0.0,0.0,0.0,8.999999999999999e-08,0.0,0.0,0.0,8.999999999999999e-08
1737285472.7350512,12814,1737285463,233673408,base_link,-0.0040454678129178,0.01414368533339486,-0.9895894664931566,-0.14316521281775801,1.0,0.0,0.0,0.0,1.0,0.0,0.0,0.0,1.0,0.19062107801437378,-0.11629185080528257,0.22028037905693057,1.2184696791468346e-07,0.0,0.0,0.0,1.2184696791468346e-07,0.0,0.0,0.0,1.2184696791468346e-07,-0.0980665,-0.3138127999999988,10.0812362,8.999999999999999e-08,0.0,0.0,0.0,8.999999999999999e-08,0.0,0.0,0.0,8.999999999999999e-08
1737285472.7351418,12815,1737285463,333672384,base_link,-0.00646533948103105,0.014601979324944168,-0.9902244241959228,-0.13856612613132469,1.0,0.0,0.0,0.0,1.0,0.0,0.0,0.0,1.0,0.1770971119403839,-0.30175259709358215,0.07921364158391957,1.2184696791468346e-07,0.0,0.0,0.0,1.2184696791468346e-07,0.0,0.0,0.0,1.2184696791468346e-07,-0.0784532,-0.3530393999999987,10.091042850000001,8.999999999999999e-08,0.0,0.0,0.0,8.999999999999999e-08,0.0,0.0,0.0,8.999999999999999e-08
1737285472.7352085,12816,1737285463,433672384,base_link,-0.007059650311222066,0.015285429880347081,-0.9910220195823656,-0.1326343608336314,1.0,0.0,0.0,0.0,1.0,0.0,0.0,0.0,1.0,0.13523508608341217,-0.03508017957210543,-0.1444532722234726,1.2184696791468346e-07,0.0,0.0,0.0,1.2184696791468346e-07,0.0,0.0,0.0,1.2184696791468346e-07,0.02941995,-0.18632634999999875,10.1400761,8.999999999999999e-08,0.0,0.0,0.0,8.999999999999999e-08,0.0,0.0,0.0,8.999999999999999e-08
1737285472.735333,12817,1737285463,533672384,base_link,-0.008172125297484229,0.01485476759263603,-0.9919495649300889,-0.12549347745161293,1.0,0.0,0.0,0.0,1.0,0.0,0.0,0.0,1.0,0.0967288687825203,-0.011247164569795081,0.4049699008464813,1.2184696791468346e-07,0.0,0.0,0.0,1.2184696791468346e-07,0.0,0.0,0.0,1.2184696791468346e-07,0.00980665,-0.2745861999999988,10.05181625,8.999999999999999e-08,0.0,0.0,0.0,8.999999999999999e-08,0.0,0.0,0.0,8.999999999999999e-08
1737285472.7353985,12818,1737285463,633672640,base_link,-0.0059462128557673626,0.016440888208308357,-0.9924915409347754,-0.1210573455867543,1.0,0.0,0.0,0.0,1.0,0.0,0.0,0.0,1.0,0.3642299175262451,-0.11244391649961473,-0.07305778563022612,1.2184696791468346e-07,0.0,0.0,0.0,1.2184696791468346e-07,0.0,0.0,0.0,1.2184696791468346e-07,-0.06864655,-0.36284604999999875,10.05181625,8.999999999999999e-08,0.0,0.0,0.0,8.999999999999999e-08,0.0,0.0,0.0,8.999999999999999e-08
1737285472.735515,12819,1737285463,733672128,base_link,-0.005176518905781004,0.016164030026096215,-0.9933840260811625,-0.11357862700400051,1.0,0.0,0.0,0.0,1.0,0.0,0.0,0.0,1.0,-0.11397931724786758,0.28427982330322266,0.19282506406307218,1.2184696791468346e-07,0.0,0.0,0.0,1.2184696791468346e-07,0.0,0.0,0.0,1.2184696791468346e-07,0.02941995,-0.26477954999999875,10.11065615,8.999999999999999e-08,0.0,0.0,0.0,8.999999999999999e-08,0.0,0.0,0.0,8.999999999999999e-08
1737285472.7356057,12820,1737285463,833672128,base_link,-0.005366973084313019,0.017877271585432966,-0.9938006598733636,-0.10959857296443143,1.0,0.0,0.0,0.0,1.0,0.0,0.0,0.0,1.0,0.1973802149295807,-0.04623158276081087,-0.19793850183486938,1.2184696791468346e-07,0.0,0.0,0.0,1.2184696791468346e-07,0.0,0.0,0.0,1.2184696791468346e-07,-0.0784532,-0.4412992499999988,9.9439431,8.999999999999999e-08,0.0,0.0,0.0,8.999999999999999e-08,0.0,0.0,0.0,8.999999999999999e-08
1737285472.7356973,12821,1737285463,933671360,base_link,-0.0027034601708999005,0.017089824558140496,-0.994217972963397,-0.10597759874723695,1.0,0.0,0.0,0.0,1.0,0.0,0.0,0.0,1.0,0.5717697143554688,-0.15097589790821075,-0.005413834005594235,1.2184696791468346e-07,0.0,0.0,0.0,1.2184696791468346e-07,0.0,0.0,0.0,1.2184696791468346e-07,0.0,-0.20593964999999878,10.07142955,8.999999999999999e-08,0.0,0.0,0.0,8.999999999999999e-08,0.0,0.0,0.0,8.999999999999999e-08
1737285472.7357576,12822,1737285464,33671616,base_link,0.0029812975431580415,0.015291135675722692,-0.9946120232334631,-0.10249007890592632,1.0,0.0,0.0,0.0,1.0,0.0,0.0,0.0,1.0,0.10710375010967255,0.08524876832962039,0.24895820021629333,1.2184696791468346e-07,0.0,0.0,0.0,1.2184696791468346e-07,0.0,0.0,0.0,1.2184696791468346e-07,0.12748645,-0.26477954999999875,10.18910935,8.999999999999999e-08,0.0,0.0,0.0,8.999999999999999e-08,0.0,0.0,0.0,8.999999999999999e-08
1737285472.735812,12823,1737285464,133671104,base_link,0.005500984776509541,0.011422569891246983,-0.9947125386127658,-0.10191285291912627,1.0,0.0,0.0,0.0,1.0,0.0,0.0,0.0,1.0,-0.21073542535305023,0.42483749985694885,0.05085603892803187,1.2184696791468346e-07,0.0,0.0,0.0,1.2184696791468346e-07,0.0,0.0,0.0,1.2184696791468346e-07,-0.10787315,-0.42168594999999875,10.1204628,8.999999999999999e-08,0.0,0.0,0.0,8.999999999999999e-08,0.0,0.0,0.0,8.999999999999999e-08
1737285472.735838,12824,1737285464,233671360,base_link,0.0018339553944420144,0.008004390013598395,-0.9946572654368981,-0.10290525089475805,1.0,0.0,0.0,0.0,1.0,0.0,0.0,0.0,1.0,-0.03572565317153931,-0.14219197630882266,-0.1871157735586166,1.2184696791468346e-07,0.0,0.0,0.0,1.2184696791468346e-07,0.0,0.0,0.0,1.2184696791468346e-07,0.0,-0.43149259999999884,9.9047165,8.999999999999999e-08,0.0,0.0,0.0,8.999999999999999e-08,0.0,0.0,0.0,8.999999999999999e-08
1737285472.7359433,12825,1737285464,333670592,base_link,-0.0020458640730310956,0.004762064592162608,-0.9945402116913815,-0.10422525850232567,1.0,0.0,0.0,0.0,1.0,0.0,0.0,0.0,1.0,0.5207405090332031,-0.13800111413002014,0.060890022665262236,1.2184696791468346e-07,0.0,0.0,0.0,1.2184696791468346e-07,0.0,0.0,0.0,1.2184696791468346e-07,-0.12748645,-0.2647795499999988,9.93413645,8.999999999999999e-08,0.0,0.0,0.0,8.999999999999999e-08,0.0,0.0,0.0,8.999999999999999e-08
1737285472.736072,12826,1737285464,433670848,base_link,0.00015778886409108654,0.00863370340202847,-0.9944947787025757,-0.10442973427886837,1.0,0.0,0.0,0.0,1.0,0.0,0.0,0.0,1.0,0.2473815232515335,-0.011332030408084377,0.1297995001077652,1.2184696791468346e-07,0.0,0.0,0.0,1.2184696791468346e-07,0.0,0.0,0.0,1.2184696791468346e-07,0.0588399,-0.15690639999999878,10.0223963,8.999999999999999e-08,0.0,0.0,0.0,8.999999999999999e-08,0.0,0.0,0.0,8.999999999999999e-08
1737285472.7361019,12827,1737285464,533670080,base_link,0.003827301033112227,0.011224552123552754,-0.9945918531042616,-0.10318142727767593,1.0,0.0,0.0,0.0,1.0,0.0,0.0,0.0,1.0,-0.10051240772008896,0.18779225647449496,0.13963492214679715,1.2184696791468346e-07,0.0,0.0,0.0,1.2184696791468346e-07,0.0,0.0,0.0,1.2184696791468346e-07,0.0196133,-0.2941994999999987,10.1596894,8.999999999999999e-08,0.0,0.0,0.0,8.999999999999999e-08,0.0,0.0,0.0,8.999999999999999e-08
1737285472.736144,12828,1737285464,633670592,base_link,0.005838170738429519,0.01393028434494529,-0.994698531565002,-0.10171870153972018,1.0,0.0,0.0,0.0,1.0,0.0,0.0,0.0,1.0,-0.46379953622817993,0.1479358673095703,0.06094004213809965,1.2184696791468346e-07,0.0,0.0,0.0,1.2184696791468346e-07,0.0,0.0,0.0,1.2184696791468346e-07,-0.1176798,-0.48052584999999876,9.99297635,8.999999999999999e-08,0.0,0.0,0.0,8.999999999999999e-08,0.0,0.0,0.0,8.999999999999999e-08
1737285472.7361968,12829,1737285464,733671104,base_link,0.005652250408024072,0.012251650936825413,-0.9947294317805699,-0.10164303549260784,1.0,0.0,0.0,0.0,1.0,0.0,0.0,0.0,1.0,0.2960289418697357,-0.08645567297935487,-0.15412670373916626,1.2184696791468346e-07,0.0,0.0,0.0,1.2184696791468346e-07,0.0,0.0,0.0,1.2184696791468346e-07,-0.1176798,-0.47071919999999884,9.9439431,8.999999999999999e-08,0.0,0.0,0.0,8.999999999999999e-08,0.0,0.0,0.0,8.999999999999999e-08
1737285472.7362556,12830,1737285464,833671616,base_link,0.0037807713828623877,0.010285079442653205,-0.9947517639319243,-0.10172930287254245,1.0,0.0,0.0,0.0,1.0,0.0,0.0,0.0,1.0,0.4876815676689148,-0.3067101538181305,-0.06805727630853649,1.2184696791468346e-07,0.0,0.0,0.0,1.2184696791468346e-07,0.0,0.0,0.0,1.2184696791468346e-07,-0.0392266,-0.2647795499999988,10.07142955,8.999999999999999e-08,0.0,0.0,0.0,8.999999999999999e-08,0.0,0.0,0.0,8.999999999999999e-08
1737285472.736437,12831,1737285464,933670848,base_link,0.003901709708423101,0.009164991335697708,-0.9948151379104788,-0.10121077501591902,1.0,0.0,0.0,0.0,1.0,0.0,0.0,0.0,1.0,0.060309723019599915,0.1980405300855637,0.18729175627231595,1.2184696791468346e-07,0.0,0.0,0.0,1.2184696791468346e-07,0.0,0.0,0.0,1.2184696791468346e-07,-0.0196133,-0.13729309999999875,10.0812362,8.999999999999999e-08,0.0,0.0,0.0,8.999999999999999e-08,0.0,0.0,0.0,8.999999999999999e-08
1737285472.7365437,12832,1737285465,33671360,base_link,0.002946671439768282,0.011985728772933068,-0.99468072164169,-0.102263979130359,1.0,0.0,0.0,0.0,1.0,0.0,0.0,0.0,1.0,-0.3015887141227722,0.03225286677479743,-0.07089994102716446,1.2184696791468346e-07,0.0,0.0,0.0,1.2184696791468346e-07,0.0,0.0,0.0,1.2184696791468346e-07,-0.0588399,-0.38245934999999875,9.99297635,8.999999999999999e-08,0.0,0.0,0.0,8.999999999999999e-08,0.0,0.0,0.0,8.999999999999999e-08
1737285472.7366457,12833,1737285465,133670848,base_link,-0.0009058669470099923,0.012130101877395704,-0.9944154438557586,-0.10483303417660517,1.0,0.0,0.0,0.0,1.0,0.0,0.0,0.0,1.0,0.3646705448627472,-0.23982152342796328,-0.1856775730848312,1.2184696791468346e-07,0.0,0.0,0.0,1.2184696791468346e-07,0.0,0.0,0.0,1.2184696791468346e-07,-0.1765197,-0.4216859499999988,9.81645665,8.999999999999999e-08,0.0,0.0,0.0,8.999999999999999e-08,0.0,0.0,0.0,8.999999999999999e-08
1737285472.7376866,12834,1737285465,233671360,base_link,-0.0014493134982849463,0.010740383661344876,-0.9942913540594066,-0.10614728866957673,1.0,0.0,0.0,0.0,1.0,0.0,0.0,0.0,1.0,0.41718584299087524,-0.14458519220352173,-0.03838976100087164,1.2184696791468346e-07,0.0,0.0,0.0,1.2184696791468346e-07,0.0,0.0,0.0,1.2184696791468346e-07,0.0,-0.2745861999999988,10.002783,8.999999999999999e-08,0.0,0.0,0.0,8.999999999999999e-08,0.0,0.0,0.0,8.999999999999999e-08
1737285472.7378511,12835,1737285465,333670848,base_link,0.0021930709254272627,0.014657137000212008,-0.994181645513434,-0.10669214825409323,1.0,0.0,0.0,0.0,1.0,0.0,0.0,0.0,1.0,-0.32048770785331726,0.3166726231575012,0.06847935169935222,1.2184696791468346e-07,0.0,0.0,0.0,1.2184696791468346e-07,0.0,0.0,0.0,1.2184696791468346e-07,0.0392266,-0.17651969999999875,10.13026945,8.999999999999999e-08,0.0,0.0,0.0,8.999999999999999e-08,0.0,0.0,0.0,8.999999999999999e-08
1737285472.7380934,12836,1737285465,433671616,base_link,0.0010877987575234442,0.014728816838931612,-0.9938885768900958,-0.10939549979669455,1.0,0.0,0.0,0.0,1.0,0.0,0.0,0.0,1.0,0.05118824541568756,-0.10603807866573337,-0.24559231102466583,1.2184696791468346e-07,0.0,0.0,0.0,1.2184696791468346e-07,0.0,0.0,0.0,1.2184696791468346e-07,-0.1372931,-0.5491723999999988,9.95374975,8.999999999999999e-08,0.0,0.0,0.0,8.999999999999999e-08,0.0,0.0,0.0,8.999999999999999e-08
1737285472.7393541,12837,1737285465,533671360,base_link,-0.001659709180160675,0.010590696099947412,-0.993819595491072,-0.11048843441518075,1.0,0.0,0.0,0.0,1.0,0.0,0.0,0.0,1.0,0.35690760612487793,-0.0919811874628067,0.02450840547680856,1.2184696791468346e-07,0.0,0.0,0.0,1.2184696791468346e-07,0.0,0.0,0.0,1.2184696791468346e-07,-0.0784532,-0.3432327499999988,9.8654899,8.999999999999999e-08,0.0,0.0,0.0,8.999999999999999e-08,0.0,0.0,0.0,8.999999999999999e-08
1737285472.7395859,12838,1737285465,633671872,base_link,-0.001483728222422963,0.011887827791022107,-0.9938219681157447,-0.11033754479559738,1.0,0.0,0.0,0.0,1.0,0.0,0.0,0.0,1.0,0.02158403769135475,0.20033061504364016,0.22522462904453275,1.2184696791468346e-07,0.0,0.0,0.0,1.2184696791468346e-07,0.0,0.0,0.0,1.2184696791468346e-07,-0.02941995,-0.18632634999999878,10.0616229,8.999999999999999e-08,0.0,0.0,0.0,8.999999999999999e-08,0.0,0.0,0.0,8.999999999999999e-08
1737285472.73973,12839,1737285465,733671360,base_link,-0.001680004749842965,0.013518157382698138,-0.9936636555155692,-0.11156601952410883,1.0,0.0,0.0,0.0,1.0,0.0,0.0,0.0,1.0,-0.285655677318573,-0.018315557390451452,-0.1674804985523224,1.2184696791468346e-07,0.0,0.0,0.0,1.2184696791468346e-07,0.0,0.0,0.0,1.2184696791468346e-07,-0.02941995,-0.4511058999999987,10.0812362,8.999999999999999e-08,0.0,0.0,0.0,8.999999999999999e-08,0.0,0.0,0.0,8.999999999999999e-08
1737285472.739832,12840,1737285465,833672128,base_link,-0.002901372810872552,0.009738362454981738,-0.9935433875703523,-0.11299682892779062,1.0,0.0,0.0,0.0,1.0,0.0,0.0,0.0,1.0,0.4210096299648285,-0.1902102530002594,-0.08382478356361386,1.2184696791468346e-07,0.0,0.0,0.0,1.2184696791468346e-07,0.0,0.0,0.0,1.2184696791468346e-07,-0.1372931,-0.3922659999999987,10.0223963,8.999999999999999e-08,0.0,0.0,0.0,8.999999999999999e-08,0.0,0.0,0.0,8.999999999999999e-08
1737285472.7539587,12841,1737285465,933671872,base_link,-0.001987104903669154,0.009724076887891214,-0.993660611481952,-0.11198251172434714,1.0,0.0,0.0,0.0,1.0,0.0,0.0,0.0,1.0,0.10120368003845215,0.11065254360437396,0.23043541610240936,1.2184696791468346e-07,0.0,0.0,0.0,1.2184696791468346e-07,0.0,0.0,0.0,1.2184696791468346e-07,-0.0196133,-0.20593964999999878,10.05181625,8.999999999999999e-08,0.0,0.0,0.0,8.999999999999999e-08,0.0,0.0,0.0,8.999999999999999e-08
1737285472.754114,12842,1737285466,33672640,base_link,-9.6688131268053e-05,0.012737450535939299,-0.9936696731119419,-0.11161688377148044,1.0,0.0,0.0,0.0,1.0,0.0,0.0,0.0,1.0,-0.2571691870689392,0.1505960673093796,0.1781743913888931,1.2184696791468346e-07,0.0,0.0,0.0,1.2184696791468346e-07,0.0,0.0,0.0,1.2184696791468346e-07,-0.00980665,-0.34323274999999875,10.03220295,8.999999999999999e-08,0.0,0.0,0.0,8.999999999999999e-08,0.0,0.0,0.0,8.999999999999999e-08
1737285472.7542505,12843,1737285466,133673408,base_link,-0.0032176225270246677,0.011754092316333517,-0.9934783067084211,-0.11336817154237361,1.0,0.0,0.0,0.0,1.0,0.0,0.0,0.0,1.0,0.3144761919975281,-0.3111404776573181,-0.2080922573804855,1.2184696791468346e-07,0.0,0.0,0.0,1.2184696791468346e-07,0.0,0.0,0.0,1.2184696791468346e-07,-0.18632635,-0.5295590999999987,10.0223963,8.999999999999999e-08,0.0,0.0,0.0,8.999999999999999e-08,0.0,0.0,0.0,8.999999999999999e-08
1737285472.7543302,12844,1737285466,233674176,base_link,-0.00132146975571099,0.01167246448524653,-0.9935883655922046,-0.11244628517802235,1.0,0.0,0.0,0.0,1.0,0.0,0.0,0.0,1.0,0.24153953790664673,0.00849304348230363,0.07804565131664276,1.2184696791468346e-07,0.0,0.0,0.0,1.2184696791468346e-07,0.0,0.0,0.0,1.2184696791468346e-07,0.0,-0.23535959999999875,10.1008495,8.999999999999999e-08,0.0,0.0,0.0,8.999999999999999e-08,0.0,0.0,0.0,8.999999999999999e-08
1737285472.7546303,12845,1737285466,333673664,base_link,0.001971039407307056,0.015860739592063657,-0.9937189921454723,-0.11075701599733628,1.0,0.0,0.0,0.0,1.0,0.0,0.0,0.0,1.0,-0.1950385421514511,0.40072011947631836,0.16641530394554133,1.2184696791468346e-07,0.0,0.0,0.0,1.2184696791468346e-07,0.0,0.0,0.0,1.2184696791468346e-07,-0.0196133,-0.22555294999999878,10.0812362,8.999999999999999e-08,0.0,0.0,0.0,8.999999999999999e-08,0.0,0.0,0.0,8.999999999999999e-08
1737285472.75469,12846,1737285466,433674688,base_link,0.0015058276611870603,0.019674972119851537,-0.9936683488963923,-0.11060669218747748,1.0,0.0,0.0,0.0,1.0,0.0,0.0,0.0,1.0,0.0241277813911438,-0.048741016536951086,-0.1700134575366974,1.2184696791468346e-07,0.0,0.0,0.0,1.2184696791468346e-07,0.0,0.0,0.0,1.2184696791468346e-07,-0.0784532,-0.4412992499999988,9.9243298,8.999999999999999e-08,0.0,0.0,0.0,8.999999999999999e-08,0.0,0.0,0.0,8.999999999999999e-08
1737285472.754989,12847,1737285466,533674432,base_link,0.0008004037839118476,0.018568465739961213,-0.9936833910702129,-0.11067018453517108,1.0,0.0,0.0,0.0,1.0,0.0,0.0,0.0,1.0,0.5504694581031799,-0.21642948687076569,-0.09185049682855603,1.2184696791468346e-07,0.0,0.0,0.0,1.2184696791468346e-07,0.0,0.0,0.0,1.2184696791468346e-07,-0.1176798,-0.36284604999999875,9.99297635,8.999999999999999e-08,0.0,0.0,0.0,8.999999999999999e-08,0.0,0.0,0.0,8.999999999999999e-08
1737285472.7551606,12848,1737285466,633675456,base_link,0.004073261574090361,0.019497503716716904,-0.9938055490611446,-0.10933337342386484,1.0,0.0,0.0,0.0,1.0,0.0,0.0,0.0,1.0,0.03166148439049721,0.08919236809015275,0.1467445343732834,1.2184696791468346e-07,0.0,0.0,0.0,1.2184696791468346e-07,0.0,0.0,0.0,1.2184696791468346e-07,0.02941995,-0.18632634999999878,10.091042850000001,8.999999999999999e-08,0.0,0.0,0.0,8.999999999999999e-08,0.0,0.0,0.0,8.999999999999999e-08
1737285472.7576096,12849,1737285466,733675200,base_link,0.004245605853945678,0.01917463302522264,-0.9938772779001152,-0.10873023844882473,1.0,0.0,0.0,0.0,1.0,0.0,0.0,0.0,1.0,-0.03433067724108696,0.3025865852832794,0.11391679197549816,1.2184696791468346e-07,0.0,0.0,0.0,1.2184696791468346e-07,0.0,0.0,0.0,1.2184696791468346e-07,-0.06864655,-0.3334260999999987,10.002783,8.999999999999999e-08,0.0,0.0,0.0,8.999999999999999e-08,0.0,0.0,0.0,8.999999999999999e-08
1737285472.7630873,12850,1737285466,833675968,base_link,0.0026207437435260797,0.021287781001302682,-0.9937850602200258,-0.10923010649885323,1.0,0.0,0.0,0.0,1.0,0.0,0.0,0.0,1.0,-0.0796523317694664,0.02089393883943557,-0.061499837785959244,1.2184696791468346e-07,0.0,0.0,0.0,1.2184696791468346e-07,0.0,0.0,0.0,1.2184696791468346e-07,-0.1176798,-0.49033249999999884,9.95374975,8.999999999999999e-08,0.0,0.0,0.0,8.999999999999999e-08,0.0,0.0,0.0,8.999999999999999e-08
1737285472.7632008,12851,1737285466,933675968,base_link,0.0008984340869357442,0.020743901281589313,-0.9935794393931126,-0.11121502142732104,1.0,0.0,0.0,0.0,1.0,0.0,0.0,0.0,1.0,0.07013213634490967,-0.1532070189714432,-0.18925963342189786,1.2184696791468346e-07,0.0,0.0,0.0,1.2184696791468346e-07,0.0,0.0,0.0,1.2184696791468346e-07,-0.20593965,-0.5197524499999987,10.0223963,8.999999999999999e-08,0.0,0.0,0.0,8.999999999999999e-08,0.0,0.0,0.0,8.999999999999999e-08
1737285472.7632296,12852,1737285467,33676992,base_link,0.0008332700018212946,0.01841432008308687,-0.9934509788547079,-0.11276245425496961,1.0,0.0,0.0,0.0,1.0,0.0,0.0,0.0,1.0,0.3595581352710724,-0.07025189697742462,-0.0476112738251686,1.2184696791468346e-07,0.0,0.0,0.0,1.2184696791468346e-07,0.0,0.0,0.0,1.2184696791468346e-07,0.0196133,-0.3138127999999988,10.002783,8.999999999999999e-08,0.0,0.0,0.0,8.999999999999999e-08,0.0,0.0,0.0,8.999999999999999e-08
1737285472.7633057,12853,1737285467,133677760,base_link,0.0016484559347498566,0.01796652759760025,-0.9933639659678366,-0.1135892494726779,1.0,0.0,0.0,0.0,1.0,0.0,0.0,0.0,1.0,0.2440854161977768,0.059808187186718,0.11183824390172957,1.2184696791468346e-07,0.0,0.0,0.0,1.2184696791468346e-07,0.0,0.0,0.0,1.2184696791468346e-07,-0.02941995,-0.17651969999999878,10.0812362,8.999999999999999e-08,0.0,0.0,0.0,8.999999999999999e-08,0.0,0.0,0.0,8.999999999999999e-08
1737285472.7634757,12854,1737285467,233678784,base_link,0.002723599686846586,0.019933834529918593,-0.9932170220124384,-0.11452148894606201,1.0,0.0,0.0,0.0,1.0,0.0,0.0,0.0,1.0,-0.024778826162219048,0.11654741317033769,0.14469543099403379,1.2184696791468346e-07,0.0,0.0,0.0,1.2184696791468346e-07,0.0,0.0,0.0,1.2184696791468346e-07,-0.0392266,-0.3040061499999988,10.091042850000001,8.999999999999999e-08,0.0,0.0,0.0,8.999999999999999e-08,0.0,0.0,0.0,8.999999999999999e-08
1737285472.763635,12855,1737285467,333679808,base_link,0.002302689502435771,0.02085718770465437,-0.9931052927515236,-0.11533235821320281,1.0,0.0,0.0,0.0,1.0,0.0,0.0,0.0,1.0,-0.2945869565010071,0.07844206690788268,-0.11336078494787218,1.2184696791468346e-07,0.0,0.0,0.0,1.2184696791468346e-07,0.0,0.0,0.0,1.2184696791468346e-07,-0.1176798,-0.4511058999999987,10.0812362,8.999999999999999e-08,0.0,0.0,0.0,8.999999999999999e-08,0.0,0.0,0.0,8.999999999999999e-08
1737285472.7637522,12856,1737285467,433680832,base_link,-0.00025824318686318195,0.018387463892283795,-0.9930935178686808,-0.11587536083773137,1.0,0.0,0.0,0.0,1.0,0.0,0.0,0.0,1.0,0.4346143305301666,-0.10532310605049136,-0.21416155993938446,1.2184696791468346e-07,0.0,0.0,0.0,1.2184696791468346e-07,0.0,0.0,0.0,1.2184696791468346e-07,-0.14709975,-0.49033249999999884,9.9243298,8.999999999999999e-08,0.0,0.0,0.0,8.999999999999999e-08,0.0,0.0,0.0,8.999999999999999e-08
1737285472.763856,12857,1737285467,533680832,base_link,-0.0019109993734888232,0.016196191915597274,-0.993336173520899,-0.11409328562052196,1.0,0.0,0.0,0.0,1.0,0.0,0.0,0.0,1.0,0.2831669747829437,0.00982714444398882,0.163643941283226,1.2184696791468346e-07,0.0,0.0,0.0,1.2184696791468346e-07,0.0,0.0,0.0,1.2184696791468346e-07,-0.04903325,-0.2843928499999988,9.97336305,8.999999999999999e-08,0.0,0.0,0.0,8.999999999999999e-08,0.0,0.0,0.0,8.999999999999999e-08
1737285472.7638857,12858,1737285467,633681856,base_link,-0.0007042093949536668,0.019560809459073257,-0.9934560249174215,-0.112525576549109,1.0,0.0,0.0,0.0,1.0,0.0,0.0,0.0,1.0,-0.08481308817863464,0.1416898220777512,0.18559227883815763,1.2184696791468346e-07,0.0,0.0,0.0,1.2184696791468346e-07,0.0,0.0,0.0,1.2184696791468346e-07,0.0,-0.22555294999999878,10.0616229,8.999999999999999e-08,0.0,0.0,0.0,8.999999999999999e-08,0.0,0.0,0.0,8.999999999999999e-08
1737285472.763927,12859,1737285467,733681600,base_link,0.0009081548270578272,0.020492806385504492,-0.9934620607647079,-0.11230473704344018,1.0,0.0,0.0,0.0,1.0,0.0,0.0,0.0,1.0,-0.24419981241226196,0.16120673716068268,-0.08177134394645692,1.2184696791468346e-07,0.0,0.0,0.0,1.2184696791468346e-07,0.0,0.0,0.0,1.2184696791468346e-07,-0.10787315,-0.5295590999999987,9.99297635,8.999999999999999e-08,0.0,0.0,0.0,8.999999999999999e-08,0.0,0.0,0.0,8.999999999999999e-08
1737285472.7643917,12860,1737285467,833682880,base_link,-0.00047547853695014455,0.01774508993287687,-0.9934155111233081,-0.11318351453746317,1.0,0.0,0.0,0.0,1.0,0.0,0.0,0.0,1.0,0.3613748550415039,-0.06491334736347201,-0.19246111810207367,1.2184696791468346e-07,0.0,0.0,0.0,1.2184696791468346e-07,0.0,0.0,0.0,1.2184696791468346e-07,-0.1372931,-0.5099457999999988,9.9047165,8.999999999999999e-08,0.0,0.0,0.0,8.999999999999999e-08,0.0,0.0,0.0,8.999999999999999e-08
1737285472.7644916,12861,1737285467,933682624,base_link,-0.002572043481093216,0.015462921199602924,-0.9934468654641314,-0.11321487605345065,1.0,0.0,0.0,0.0,1.0,0.0,0.0,0.0,1.0,0.38938993215560913,-0.0919855609536171,0.020879095420241366,1.2184696791468346e-07,0.0,0.0,0.0,1.2184696791468346e-07,0.0,0.0,0.0,1.2184696791468346e-07,-0.00980665,-0.2745861999999988,10.07142955,8.999999999999999e-08,0.0,0.0,0.0,8.999999999999999e-08,0.0,0.0,0.0,8.999999999999999e-08
1737285472.7645893,12862,1737285468,33682112,base_link,-0.0023069358786192064,0.01602355425585534,-0.9934631892586445,-0.11299918293467615,1.0,0.0,0.0,0.0,1.0,0.0,0.0,0.0,1.0,0.16617226600646973,0.12433267384767534,0.14054998755455014,1.2184696791468346e-07,0.0,0.0,0.0,1.2184696791468346e-07,0.0,0.0,0.0,1.2184696791468346e-07,0.0196133,-0.20593964999999875,10.2185293,8.999999999999999e-08,0.0,0.0,0.0,8.999999999999999e-08,0.0,0.0,0.0,8.999999999999999e-08
1737285472.7658556,12863,1737285468,133682368,base_link,-0.002032307311080217,0.016769680707163153,-0.9934637839895938,-0.11289090945267072,1.0,0.0,0.0,0.0,1.0,0.0,0.0,0.0,1.0,-0.14390142261981964,0.13369710743427277,0.0912492275238037,1.2184696791468346e-07,0.0,0.0,0.0,1.2184696791468346e-07,0.0,0.0,0.0,1.2184696791468346e-07,-0.0784532,-0.4707191999999987,10.0812362,8.999999999999999e-08,0.0,0.0,0.0,8.999999999999999e-08,0.0,0.0,0.0,8.999999999999999e-08
1737285472.7703266,12864,1737285468,233682112,base_link,-0.004337336740291471,0.013729341526392816,-0.9934045289490014,-0.11375471223147249,1.0,0.0,0.0,0.0,1.0,0.0,0.0,0.0,1.0,0.1207442581653595,-0.2023233771324158,-0.22079445421695706,1.2184696791468346e-07,0.0,0.0,0.0,1.2184696791468346e-07,0.0,0.0,0.0,1.2184696791468346e-07,-0.1176798,-0.5197524499999987,10.03220295,8.999999999999999e-08,0.0,0.0,0.0,8.999999999999999e-08,0.0,0.0,0.0,8.999999999999999e-08
1737285472.7704015,12865,1737285468,333681856,base_link,-0.004898669304100034,0.013182695433908253,-0.9935350793638886,-0.11265107923822737,1.0,0.0,0.0,0.0,1.0,0.0,0.0,0.0,1.0,0.24592335522174835,-0.02363410219550132,0.061392344534397125,1.2184696791468346e-07,0.0,0.0,0.0,1.2184696791468346e-07,0.0,0.0,0.0,1.2184696791468346e-07,0.0,-0.21574629999999878,9.9831697,8.999999999999999e-08,0.0,0.0,0.0,8.999999999999999e-08,0.0,0.0,0.0,8.999999999999999e-08
1737285472.7704358,12866,1737285468,433681344,base_link,-0.0045196480727534,0.01627993589325939,-0.9936974882587648,-0.11081443180755679,1.0,0.0,0.0,0.0,1.0,0.0,0.0,0.0,1.0,-0.13460029661655426,0.2285014092922211,0.18345233798027036,1.2184696791468346e-07,0.0,0.0,0.0,1.2184696791468346e-07,0.0,0.0,0.0,1.2184696791468346e-07,-0.0196133,-0.18632634999999878,10.05181625,8.999999999999999e-08,0.0,0.0,0.0,8.999999999999999e-08,0.0,0.0,0.0,8.999999999999999e-08
1737285472.770888,12867,1737285468,533681088,base_link,-0.0041180026542705864,0.019406084922515734,-0.9937900026578923,-0.10948916174373469,1.0,0.0,0.0,0.0,1.0,0.0,0.0,0.0,1.0,-0.14765048027038574,0.010863449424505235,0.01593032479286194,1.2184696791468346e-07,0.0,0.0,0.0,1.2184696791468346e-07,0.0,0.0,0.0,1.2184696791468346e-07,-0.00980665,-0.42168594999999875,10.07142955,8.999999999999999e-08,0.0,0.0,0.0,8.999999999999999e-08,0.0,0.0,0.0,8.999999999999999e-08
1737285472.7709877,12868,1737285468,633680832,base_link,-0.004520937302595432,0.017807103188337853,-0.9937666374883871,-0.10995607494345289,1.0,0.0,0.0,0.0,1.0,0.0,0.0,0.0,1.0,0.20881463587284088,-0.24994908273220065,-0.19520451128482816,1.2184696791468346e-07,0.0,0.0,0.0,1.2184696791468346e-07,0.0,0.0,0.0,1.2184696791468346e-07,-0.16671305,-0.4805258499999988,9.93413645,8.999999999999999e-08,0.0,0.0,0.0,8.999999999999999e-08,0.0,0.0,0.0,8.999999999999999e-08
1737285472.7710602,12869,1737285468,733680576,base_link,-0.0050006243307412004,0.01594788429517392,-0.9938293773102218,-0.10965321490037239,1.0,0.0,0.0,0.0,1.0,0.0,0.0,0.0,1.0,0.2779528796672821,-0.0554867759346962,0.009132901206612594,1.2184696791468346e-07,0.0,0.0,0.0,1.2184696791468346e-07,0.0,0.0,0.0,1.2184696791468346e-07,-0.02941995,-0.3138127999999988,9.9831697,8.999999999999999e-08,0.0,0.0,0.0,8.999999999999999e-08,0.0,0.0,0.0,8.999999999999999e-08
1737285472.7710857,12870,1737285468,833680576,base_link,-0.0050774256900581495,0.016055167424292072,-0.9939002612362764,-0.10898955024130247,1.0,0.0,0.0,0.0,1.0,0.0,0.0,0.0,1.0,-0.20173415541648865,0.0655605047941208,0.13257931172847748,1.2184696791468346e-07,0.0,0.0,0.0,1.2184696791468346e-07,0.0,0.0,0.0,1.2184696791468346e-07,0.0,-0.23535959999999875,10.13026945,8.999999999999999e-08,0.0,0.0,0.0,8.999999999999999e-08,0.0,0.0,0.0,8.999999999999999e-08
1737285472.7711382,12871,1737285468,933680320,base_link,-0.0021563759437524337,0.018696638214258703,-0.9938957499968435,-0.10870613552365005,1.0,0.0,0.0,0.0,1.0,0.0,0.0,0.0,1.0,-0.7097794413566589,0.2694948613643646,0.1371856331825256,1.2184696791468346e-07,0.0,0.0,0.0,1.2184696791468346e-07,0.0,0.0,0.0,1.2184696791468346e-07,0.0,-0.2745861999999987,10.20872265,8.999999999999999e-08,0.0,0.0,0.0,8.999999999999999e-08,0.0,0.0,0.0,8.999999999999999e-08
1737285472.771209,12872,1737285469,33680064,base_link,-0.00027497391090638203,0.020063076915650895,-0.9938152786520482,-0.1092180811577309,1.0,0.0,0.0,0.0,1.0,0.0,0.0,0.0,1.0,-0.3584880828857422,0.0006756582297384678,-0.04940490052103996,1.2184696791468346e-07,0.0,0.0,0.0,1.2184696791468346e-07,0.0,0.0,0.0,1.2184696791468346e-07,-0.1176798,-0.4511058999999987,9.9635564,8.999999999999999e-08,0.0,0.0,0.0,8.999999999999999e-08,0.0,0.0,0.0,8.999999999999999e-08
1737285472.7712967,12873,1737285469,133680064,base_link,-0.0019056631627017212,0.01796639408935906,-0.9937517618778169,-0.1101408774981884,1.0,0.0,0.0,0.0,1.0,0.0,0.0,0.0,1.0,0.14722782373428345,-0.27339065074920654,-0.12135642766952512,1.2184696791468346e-07,0.0,0.0,0.0,1.2184696791468346e-07,0.0,0.0,0.0,1.2184696791468346e-07,-0.1569064,-0.4314925999999987,9.97336305,8.999999999999999e-08,0.0,0.0,0.0,8.999999999999999e-08,0.0,0.0,0.0,8.999999999999999e-08
1737285472.771646,12874,1737285469,233679808,base_link,-0.0027954924668733344,0.015130613153714752,-0.9938002192890989,-0.11011073475551492,1.0,0.0,0.0,0.0,1.0,0.0,0.0,0.0,1.0,0.2993590831756592,-0.051518157124519334,0.09633849561214447,1.2184696791468346e-07,0.0,0.0,0.0,1.2184696791468346e-07,0.0,0.0,0.0,1.2184696791468346e-07,-0.0196133,-0.2843928499999988,10.002783,8.999999999999999e-08,0.0,0.0,0.0,8.999999999999999e-08,0.0,0.0,0.0,8.999999999999999e-08
1737285472.7738466,12875,1737285469,333680064,base_link,-0.004099526193399925,0.015163186777642824,-0.9937879613767229,-0.1101760385675265,1.0,0.0,0.0,0.0,1.0,0.0,0.0,0.0,1.0,-0.010923037305474281,0.04919272661209108,0.09404939413070679,1.2184696791468346e-07,0.0,0.0,0.0,1.2184696791468346e-07,0.0,0.0,0.0,1.2184696791468346e-07,0.0,-0.2647795499999988,10.0812362,8.999999999999999e-08,0.0,0.0,0.0,8.999999999999999e-08,0.0,0.0,0.0,8.999999999999999e-08
1737285472.7774427,12876,1737285469,433679808,base_link,-0.0017047844225040855,0.017691026009231628,-0.9937323750954656,-0.11036343595565712,1.0,0.0,0.0,0.0,1.0,0.0,0.0,0.0,1.0,-0.2171296924352646,0.20540837943553925,0.02958159893751142,1.2184696791468346e-07,0.0,0.0,0.0,1.2184696791468346e-07,0.0,0.0,0.0,1.2184696791468346e-07,0.00980665,-0.3334260999999987,10.0616229,8.999999999999999e-08,0.0,0.0,0.0,8.999999999999999e-08,0.0,0.0,0.0,8.999999999999999e-08
1737285472.7775302,12877,1737285469,533680064,base_link,-0.002350739908874193,0.01614975988821309,-0.993546499927622,-0.11224531954164463,1.0,0.0,0.0,0.0,1.0,0.0,0.0,0.0,1.0,0.47887879610061646,-0.17120672762393954,-0.25785213708877563,1.2184696791468346e-07,0.0,0.0,0.0,1.2184696791468346e-07,0.0,0.0,0.0,1.2184696791468346e-07,-0.1569064,-0.5295590999999988,9.9243298,8.999999999999999e-08,0.0,0.0,0.0,8.999999999999999e-08,0.0,0.0,0.0,8.999999999999999e-08
1737285472.7795682,12878,1737285469,633680064,base_link,-0.004141873597625865,0.014203643910870435,-0.9934780620067587,-0.1130594608781128,1.0,0.0,0.0,0.0,1.0,0.0,0.0,0.0,1.0,0.2712187170982361,-0.12131908535957336,-0.04013191908597945,1.2184696791468346e-07,0.0,0.0,0.0,1.2184696791468346e-07,0.0,0.0,0.0,1.2184696791468346e-07,-0.10787315,-0.32361944999999875,9.9831697,8.999999999999999e-08,0.0,0.0,0.0,8.999999999999999e-08,0.0,0.0,0.0,8.999999999999999e-08
1737285472.78233,12879,1737285469,733680064,base_link,-0.0024395061445573766,0.016714155335438765,-0.9935033876280541,-0.11254201256763519,1.0,0.0,0.0,0.0,1.0,0.0,0.0,0.0,1.0,-0.356722354888916,0.22211585938930511,0.07841080427169797,1.2184696791468346e-07,0.0,0.0,0.0,1.2184696791468346e-07,0.0,0.0,0.0,1.2184696791468346e-07,0.06864655,-0.22555294999999875,10.1400761,8.999999999999999e-08,0.0,0.0,0.0,8.999999999999999e-08,0.0,0.0,0.0,8.999999999999999e-08
1737285472.7824092,12880,1737285469,833680064,base_link,-0.0005286896636382309,0.018254992807183103,-0.9933179876153394,-0.11395547904625597,1.0,0.0,0.0,0.0,1.0,0.0,0.0,0.0,1.0,-0.1014031320810318,0.11106611788272858,-0.034867540001869216,1.2184696791468346e-07,0.0,0.0,0.0,1.2184696791468346e-07,0.0,0.0,0.0,1.2184696791468346e-07,-0.0784532,-0.43149259999999884,9.93413645,8.999999999999999e-08,0.0,0.0,0.0,8.999999999999999e-08,0.0,0.0,0.0,8.999999999999999e-08
1737285472.784405,12881,1737285469,933680320,base_link,-0.001580798126566131,0.017478208663883107,-0.9931210146335792,-0.11576987342290312,1.0,0.0,0.0,0.0,1.0,0.0,0.0,0.0,1.0,0.20770886540412903,-0.06673253327608111,-0.21149873733520508,1.2184696791468346e-07,0.0,0.0,0.0,1.2184696791468346e-07,0.0,0.0,0.0,1.2184696791468346e-07,-0.12748645,-0.4707191999999987,9.9635564,8.999999999999999e-08,0.0,0.0,0.0,8.999999999999999e-08,0.0,0.0,0.0,8.999999999999999e-08
1737285472.786027,12882,1737285470,33680320,base_link,-0.0008875894691133645,0.013814608856767713,-0.9931334468049228,-0.11616507910918111,1.0,0.0,0.0,0.0,1.0,0.0,0.0,0.0,1.0,0.31915003061294556,-0.035813942551612854,0.012896809726953512,1.2184696791468346e-07,0.0,0.0,0.0,1.2184696791468346e-07,0.0,0.0,0.0,1.2184696791468346e-07,0.0,-0.2647795499999988,10.0616229,8.999999999999999e-08,0.0,0.0,0.0,8.999999999999999e-08,0.0,0.0,0.0,8.999999999999999e-08
1737285472.786083,12883,1737285470,133680320,base_link,0.0020649524050255262,0.017867394083858484,-0.9932082687137407,-0.11495141216562282,1.0,0.0,0.0,0.0,1.0,0.0,0.0,0.0,1.0,-0.7398875951766968,0.4056645631790161,0.19034789502620691,1.2184696791468346e-07,0.0,0.0,0.0,1.2184696791468346e-07,0.0,0.0,0.0,1.2184696791468346e-07,-0.04903325,-0.2843928499999988,10.0616229,8.999999999999999e-08,0.0,0.0,0.0,8.999999999999999e-08,0.0,0.0,0.0,8.999999999999999e-08
1737285472.7861593,12884,1737285470,234673664,base_link,0.008184587318184737,0.02192477280008814,-0.9929544717024191,-0.11616253266120208,1.0,0.0,0.0,0.0,1.0,0.0,0.0,0.0,1.0,-0.4429627060890198,0.18752890825271606,-0.08423717319965365,1.2184696791468346e-07,0.0,0.0,0.0,1.2184696791468346e-07,0.0,0.0,0.0,1.2184696791468346e-07,0.00980665,-0.38245934999999875,10.0223963,8.999999999999999e-08,0.0,0.0,0.0,8.999999999999999e-08,0.0,0.0,0.0,8.999999999999999e-08
1737285472.786263,12885,1737285470,334673664,base_link,0.015515110318089597,0.03489859836787705,-0.9922103822265029,-0.1185745612925137,1.0,0.0,0.0,0.0,1.0,0.0,0.0,0.0,1.0,-0.5011199116706848,0.22782622277736664,-0.11275228112936023,1.2184696791468346e-07,0.0,0.0,0.0,1.2184696791468346e-07,0.0,0.0,0.0,1.2184696791468346e-07,-0.22555295,-0.3726526999999987,10.42446895,8.999999999999999e-08,0.0,0.0,0.0,8.999999999999999e-08,0.0,0.0,0.0,8.999999999999999e-08
1737285472.7863216,12886,1737285470,433667008,base_link,0.03081321036344393,0.05665865547328545,-0.9903541396615138,-0.12263368575705674,1.0,0.0,0.0,0.0,1.0,0.0,0.0,0.0,1.0,-0.35144683718681335,0.17711427807807922,-0.027060262858867666,1.2184696791468346e-07,0.0,0.0,0.0,1.2184696791468346e-07,0.0,0.0,0.0,1.2184696791468346e-07,0.1569064,-0.23535959999999867,10.75789505,8.999999999999999e-08,0.0,0.0,0.0,8.999999999999999e-08,0.0,0.0,0.0,8.999999999999999e-08
1737285472.7863467,12887,1737285470,533665728,base_link,0.039053489658421627,0.06512118165956252,-0.9892312801610146,-0.1251220643841941,1.0,0.0,0.0,0.0,1.0,0.0,0.0,0.0,1.0,0.3925586938858032,-0.033655449748039246,-0.011923052370548245,1.2184696791468346e-07,0.0,0.0,0.0,1.2184696791468346e-07,0.0,0.0,0.0,1.2184696791468346e-07,-0.06864655,-0.6472388999999986,11.1991943,8.999999999999999e-08,0.0,0.0,0.0,8.999999999999999e-08,0.0,0.0,0.0,8.999999999999999e-08
1737285472.7863917,12888,1737285470,633665728,base_link,0.03278784863499525,0.05580567028101763,-0.9909104484558318,-0.11792865337752861,1.0,0.0,0.0,0.0,1.0,0.0,0.0,0.0,1.0,0.5606879591941833,-0.22074384987354273,0.34348753094673157,1.2184696791468346e-07,0.0,0.0,0.0,1.2184696791468346e-07,0.0,0.0,0.0,1.2184696791468346e-07,-0.04903325,-0.5982056499999986,11.22861425,8.999999999999999e-08,0.0,0.0,0.0,8.999999999999999e-08,0.0,0.0,0.0,8.999999999999999e-08
1737285472.786437,12889,1737285470,733664960,base_link,0.02214705075097504,0.03114586005103895,-0.994638176634254,-0.0960954792193755,1.0,0.0,0.0,0.0,1.0,0.0,0.0,0.0,1.0,0.3219422399997711,-0.04370081797242157,0.6407341957092285,1.2184696791468346e-07,0.0,0.0,0.0,1.2184696791468346e-07,0.0,0.0,0.0,1.2184696791468346e-07,0.0784532,-0.5295590999999986,11.2188076,8.999999999999999e-08,0.0,0.0,0.0,8.999999999999999e-08,0.0,0.0,0.0,8.999999999999999e-08
1737285472.7864602,12890,1737285470,833665216,base_link,0.005863284237700067,-0.006290736641164588,-0.9980530466022386,-0.06177511390883289,1.0,0.0,0.0,0.0,1.0,0.0,0.0,0.0,1.0,0.6128740310668945,-0.07920117676258076,0.8900771141052246,1.2184696791468346e-07,0.0,0.0,0.0,1.2184696791468346e-07,0.0,0.0,0.0,1.2184696791468346e-07,-0.1176798,-0.6570455499999986,11.03248125,8.999999999999999e-08,0.0,0.0,0.0,8.999999999999999e-08,0.0,0.0,0.0,8.999999999999999e-08
1737285472.7865093,12891,1737285470,933665728,base_link,-0.01479887066840624,-0.038590151715894916,-0.998940010328458,-0.020264485743883454,1.0,0.0,0.0,0.0,1.0,0.0,0.0,0.0,1.0,0.7503786683082581,-0.46744146943092335,1.0131021738052368,1.2184696791468346e-07,0.0,0.0,0.0,1.2184696791468346e-07,0.0,0.0,0.0,1.2184696791468346e-07,-0.0392266,-0.4805258499999986,11.1011278,8.999999999999999e-08,0.0,0.0,0.0,8.999999999999999e-08,0.0,0.0,0.0,8.999999999999999e-08
1737285472.7865434,12892,1737285471,33665984,base_link,-0.034452855100299856,-0.053597773061870316,-0.9977349217551545,0.021570938980064788,1.0,0.0,0.0,0.0,1.0,0.0,0.0,0.0,1.0,0.09187072515487671,-0.3030085563659667,0.767705500125885,1.2184696791468346e-07,0.0,0.0,0.0,1.2184696791468346e-07,0.0,0.0,0.0,1.2184696791468346e-07,-0.06864655,-0.4412992499999986,11.24822755,8.999999999999999e-08,0.0,0.0,0.0,8.999999999999999e-08,0.0,0.0,0.0,8.999999999999999e-08
1737285472.7866392,12893,1737285471,133665984,base_link,-0.051550157285735004,-0.06701764347271837,-0.9949555727590247,0.053987266859332084,1.0,0.0,0.0,0.0,1.0,0.0,0.0,0.0,1.0,0.4284507930278778,-0.3231298923492431,0.5447871088981628,1.2184696791468346e-07,0.0,0.0,0.0,1.2184696791468346e-07,0.0,0.0,0.0,1.2184696791468346e-07,-0.0588399,-0.4314925999999986,11.375714,8.999999999999999e-08,0.0,0.0,0.0,8.999999999999999e-08,0.0,0.0,0.0,8.999999999999999e-08
1737285472.7871597,12894,1737285471,233666240,base_link,-0.06365631936854448,-0.07862679330339092,-0.9925461378385042,0.0679548720927684,1.0,0.0,0.0,0.0,1.0,0.0,0.0,0.0,1.0,0.025946449488401413,-0.26893094182014465,0.09934686124324801,1.2184696791468346e-07,0.0,0.0,0.0,1.2184696791468346e-07,0.0,0.0,0.0,1.2184696791468346e-07,0.00980665,-0.5589790499999986,11.6699135,8.999999999999999e-08,0.0,0.0,0.0,8.999999999999999e-08,0.0,0.0,0.0,8.999999999999999e-08
1737285472.7878618,12895,1737285471,333667264,base_link,-0.06599633782550406,-0.08901136529991632,-0.9920557815210675,0.05955490401042212,1.0,0.0,0.0,0.0,1.0,0.0,0.0,0.0,1.0,0.18917417526245117,0.09712669253349299,-0.4530447721481323,1.2184696791468346e-07,0.0,0.0,0.0,1.2184696791468346e-07,0.0,0.0,0.0,1.2184696791468346e-07,-0.04903325,-0.38245934999999853,11.7091401,8.999999999999999e-08,0.0,0.0,0.0,8.999999999999999e-08,0.0,0.0,0.0,8.999999999999999e-08
1737285472.7878902,12896,1737285471,433667776,base_link,-0.05604932719443879,-0.09072806230818554,-0.9938534267805343,0.029702823223415494,1.0,0.0,0.0,0.0,1.0,0.0,0.0,0.0,1.0,0.33532190322875977,0.29968655109405506,-0.806326687335968,1.2184696791468346e-07,0.0,0.0,0.0,1.2184696791468346e-07,0.0,0.0,0.0,1.2184696791468346e-07,0.0,-0.19613299999999861,11.36590735,8.999999999999999e-08,0.0,0.0,0.0,8.999999999999999e-08,0.0,0.0,0.0,8.999999999999999e-08
1737285472.7879684,12897,1737285471,533667008,base_link,-0.0419263010357606,-0.0936231593098251,-0.9945826773925042,-0.01679842710088975,1.0,0.0,0.0,0.0,1.0,0.0,0.0,0.0,1.0,0.15145321190357208,0.2074746042490004,-1.0816210508346558,1.2184696791468346e-07,0.0,0.0,0.0,1.2184696791468346e-07,0.0,0.0,0.0,1.2184696791468346e-07,-0.04903325,-0.27458619999999867,10.91480145,8.999999999999999e-08,0.0,0.0,0.0,8.999999999999999e-08,0.0,0.0,0.0,8.999999999999999e-08
1737285472.7880204,12898,1737285471,633667520,base_link,-0.025015943328616095,-0.09205549033862004,-0.9926223123837624,-0.07483938960071673,1.0,0.0,0.0,0.0,1.0,0.0,0.0,0.0,1.0,0.1376369744539261,0.1683951169252394,-1.2981278896331787,1.2184696791468346e-07,0.0,0.0,0.0,1.2184696791468346e-07,0.0,0.0,0.0,1.2184696791468346e-07,-0.08825985,-0.2745861999999987,10.42446895,8.999999999999999e-08,0.0,0.0,0.0,8.999999999999999e-08,0.0,0.0,0.0,8.999999999999999e-08
1737285472.7880788,12899,1737285471,733670848,base_link,-0.009004773586506684,-0.0793593365006881,-0.98672842929964,-0.1413789820825268,1.0,0.0,0.0,0.0,1.0,0.0,0.0,0.0,1.0,-0.43581557273864746,0.226540759205818,-1.3605247735977173,1.2184696791468346e-07,0.0,0.0,0.0,1.2184696791468346e-07,0.0,0.0,0.0,1.2184696791468346e-07,-0.1372931,-0.08825984999999877,10.1400761,8.999999999999999e-08,0.0,0.0,0.0,8.999999999999999e-08,0.0,0.0,0.0,8.999999999999999e-08
1737285472.788939,12900,1737285471,833671360,base_link,0.004862756562452044,-0.057827063501069094,-0.9757112663044814,-0.2112342517963483,1.0,0.0,0.0,0.0,1.0,0.0,0.0,0.0,1.0,-0.6031469702720642,0.22076025605201705,-1.4506953954696655,1.2184696791468346e-07,0.0,0.0,0.0,1.2184696791468346e-07,0.0,0.0,0.0,1.2184696791468346e-07,-0.04903325,0.019613300000001214,9.9047165,8.999999999999999e-08,0.0,0.0,0.0,8.999999999999999e-08,0.0,0.0,0.0,8.999999999999999e-08
1737285472.7890284,12901,1737285471,933671872,base_link,0.011837163089430745,-0.030218850198298713,-0.9590181017130754,-0.2814799872980955,1.0,0.0,0.0,0.0,1.0,0.0,0.0,0.0,1.0,-0.03137907385826111,-0.4395082890987398,-1.5384191274642944,1.2184696791468346e-07,0.0,0.0,0.0,1.2184696791468346e-07,0.0,0.0,0.0,1.2184696791468346e-07,-0.08825985,0.029419950000001166,9.5320638,8.999999999999999e-08,0.0,0.0,0.0,8.999999999999999e-08,0.0,0.0,0.0,8.999999999999999e-08
1737285472.789766,12902,1737285472,33672384,base_link,0.014852311491200596,-0.0013267966684332097,-0.9343355354612302,-0.3560825123877121,1.0,0.0,0.0,0.0,1.0,0.0,0.0,0.0,1.0,-0.27532827854156494,-0.30185282230377214,-1.4907314777374268,1.2184696791468346e-07,0.0,0.0,0.0,1.2184696791468346e-07,0.0,0.0,0.0,1.2184696791468346e-07,-0.1765197,-0.00980664999999885,9.38496405,8.999999999999999e-08,0.0,0.0,0.0,8.999999999999999e-08,0.0,0.0,0.0,8.999999999999999e-08
1737285472.791172,12903,1737285472,133671616,base_link,0.011135203444110347,0.028737397133960493,-0.8947391936578007,-0.4455243479124478,1.0,0.0,0.0,0.0,1.0,0.0,0.0,0.0,1.0,-0.07217404991388321,-0.42591571807861345,-1.324642300605774,1.2184696791468346e-07,0.0,0.0,0.0,1.2184696791468346e-07,0.0,0.0,0.0,1.2184696791468346e-07,-0.0980665,0.05883990000000113,9.2574776,8.999999999999999e-08,0.0,0.0,0.0,8.999999999999999e-08,0.0,0.0,0.0,8.999999999999999e-08
1737285472.7945771,12904,1737285472,233672384,base_link,0.006334549077287203,0.05764017400443585,-0.8482500761750563,-0.5264117134883464,1.0,0.0,0.0,0.0,1.0,0.0,0.0,0.0,1.0,-0.5497462153434753,-0.3132690489292146,-1.0521636009216309,1.2184696791468346e-07,0.0,0.0,0.0,1.2184696791468346e-07,0.0,0.0,0.0,1.2184696791468346e-07,-0.1176798,0.03922660000000114,9.28689755,8.999999999999999e-08,0.0,0.0,0.0,8.999999999999999e-08,0.0,0.0,0.0,8.999999999999999e-08
1737285472.7951775,12905,1737285472,333672896,base_link,-0.002539653786823844,0.08560613524853322,-0.8101901424309597,-0.5798767738702375,1.0,0.0,0.0,0.0,1.0,0.0,0.0,0.0,1.0,-0.8133646845817566,-0.21303088963031783,-1.1320106983184814,1.2184696791468346e-07,0.0,0.0,0.0,1.2184696791468346e-07,0.0,0.0,0.0,1.2184696791468346e-07,-0.16671305,-0.04903324999999887,9.2770909,8.999999999999999e-08,0.0,0.0,0.0,8.999999999999999e-08,0.0,0.0,0.0,8.999999999999999e-08
1737285472.7981277,12906,1737285472,433672384,base_link,-0.021645775986748952,0.10920051884030131,-0.7805498648654207,-0.6151004922169336,1.0,0.0,0.0,0.0,1.0,0.0,0.0,0.0,1.0,-0.16379693150520325,-0.49907201528549205,-0.9380932450294494,1.2184696791468346e-07,0.0,0.0,0.0,1.2184696791468346e-07,0.0,0.0,0.0,1.2184696791468346e-07,-0.3334261,-0.3726526999999989,9.05153795,8.999999999999999e-08,0.0,0.0,0.0,8.999999999999999e-08,0.0,0.0,0.0,8.999999999999999e-08
1737285472.7985153,12907,1737285472,534672896,base_link,-0.030945650277690362,0.1324753048420123,-0.7525392512274073,-0.6443425608308053,1.0,0.0,0.0,0.0,1.0,0.0,0.0,0.0,1.0,-0.1135038435459137,-0.31024792790412914,-0.9988675713539124,1.2184696791468346e-07,0.0,0.0,0.0,1.2184696791468346e-07,0.0,0.0,0.0,1.2184696791468346e-07,-0.10787315,-0.16671304999999886,9.3163175,8.999999999999999e-08,0.0,0.0,0.0,8.999999999999999e-08,0.0,0.0,0.0,8.999999999999999e-08
1737285472.7990203,12908,1737285472,633673408,base_link,-0.03543640943578641,0.1476002128024909,-0.7238882890182479,-0.673011280060886,1.0,0.0,0.0,0.0,1.0,0.0,0.0,0.0,1.0,-0.747336208820343,0.10373494774103156,-0.7055677175521851,1.2184696791468346e-07,0.0,0.0,0.0,1.2184696791468346e-07,0.0,0.0,0.0,1.2184696791468346e-07,-0.0980665,-0.34323274999999887,9.36535075,8.999999999999999e-08,0.0,0.0,0.0,8.999999999999999e-08,0.0,0.0,0.0,8.999999999999999e-08
1737285472.799309,12909,1737285472,734672896,base_link,-0.03940496574924313,0.14901596805824813,-0.6946221849109587,-0.7026674250080829,1.0,0.0,0.0,0.0,1.0,0.0,0.0,0.0,1.0,-0.4670948386192322,0.21314179897308339,-0.8320754766464233,1.2184696791468346e-07,0.0,0.0,0.0,1.2184696791468346e-07,0.0,0.0,0.0,1.2184696791468346e-07,-0.0784532,-0.45110589999999884,9.52225715,8.999999999999999e-08,0.0,0.0,0.0,8.999999999999999e-08,0.0,0.0,0.0,8.999999999999999e-08
1737285472.8371515,12910,1737285472,833673664,base_link,-0.040902321393800734,0.13646488934968015,-0.6650443937031818,-0.7330895501119526,1.0,0.0,0.0,0.0,1.0,0.0,0.0,0.0,1.0,-0.167883038520813,0.43263670802116383,-0.7813252210617065,1.2184696791468346e-07,0.0,0.0,0.0,1.2184696791468346e-07,0.0,0.0,0.0,1.2184696791468346e-07,0.0,-0.5589790499999988,9.69877685,8.999999999999999e-08,0.0,0.0,0.0,8.999999999999999e-08,0.0,0.0,0.0,8.999999999999999e-08
1737285472.93995,12911,1737285472,933672640,base_link,-0.03797778373142811,0.12061535982708532,-0.6344451169775569,-0.7625542711571197,1.0,0.0,0.0,0.0,1.0,0.0,0.0,0.0,1.0,-0.4399082064628601,0.427304983139038,-0.7386681437492371,1.2184696791468346e-07,0.0,0.0,0.0,1.2184696791468346e-07,0.0,0.0,0.0,1.2184696791468346e-07,-0.20593965,-0.5883989999999988,9.87529655,8.999999999999999e-08,0.0,0.0,0.0,8.999999999999999e-08,0.0,0.0,0.0,8.999999999999999e-08
1737285473.0369916,12912,1737285473,33673152,base_link,-0.03667533469424854,0.09828599841796751,-0.6076384676351518,-0.7872548983588813,1.0,0.0,0.0,0.0,1.0,0.0,0.0,0.0,1.0,0.27120378613471985,0.18379104137420643,-0.8152130246162415,1.2184696791468346e-07,0.0,0.0,0.0,1.2184696791468346e-07,0.0,0.0,0.0,1.2184696791468346e-07,-0.04903325,-0.5295590999999988,9.71839015,8.999999999999999e-08,0.0,0.0,0.0,8.999999999999999e-08,0.0,0.0,0.0,8.999999999999999e-08
1737285473.1369126,12913,1737285473,133672640,base_link,-0.03334926849645139,0.0751770800904548,-0.5913751367561478,-0.8021917978553958,1.0,0.0,0.0,0.0,1.0,0.0,0.0,0.0,1.0,0.4264816641807556,0.33358061313629145,-0.5438621044158936,1.2184696791468346e-07,0.0,0.0,0.0,1.2184696791468346e-07,0.0,0.0,0.0,1.2184696791468346e-07,0.00980665,-0.39226599999999884,9.6693569,8.999999999999999e-08,0.0,0.0,0.0,8.999999999999999e-08,0.0,0.0,0.0,8.999999999999999e-08
1737285473.2367213,12914,1737285473,233673408,base_link,-0.02447420897132364,0.05603735349866721,-0.5891334272487192,-0.8057187058808252,1.0,0.0,0.0,0.0,1.0,0.0,0.0,0.0,1.0,0.12878285348415375,0.3205205798149109,0.10743806511163707,1.2184696791468346e-07,0.0,0.0,0.0,1.2184696791468346e-07,0.0,0.0,0.0,1.2184696791468346e-07,0.08825985,-0.3432327499999988,9.65955025,8.999999999999999e-08,0.0,0.0,0.0,8.999999999999999e-08,0.0,0.0,0.0,8.999999999999999e-08
1737285473.3366225,12915,1737285473,333672896,base_link,-0.02223644235966634,0.04429432472854985,-0.5980885188496641,-0.7998960414005324,1.0,0.0,0.0,0.0,1.0,0.0,0.0,0.0,1.0,0.3613296449184418,0.07018258422613144,0.05388101935386657,1.2184696791468346e-07,0.0,0.0,0.0,1.2184696791468346e-07,0.0,0.0,0.0,1.2184696791468346e-07,0.0196133,-0.3628460499999988,9.6497436,8.999999999999999e-08,0.0,0.0,0.0,8.999999999999999e-08,0.0,0.0,0.0,8.999999999999999e-08
1737285473.436638,12916,1737285473,433673664,base_link,-0.018763756029212028,0.04347779267993348,-0.6207850084675572,-0.7825494081943274,1.0,0.0,0.0,0.0,1.0,0.0,0.0,0.0,1.0,-0.07560744881629944,-0.080592356622219,0.7080054879188538,1.2184696791468346e-07,0.0,0.0,0.0,1.2184696791468346e-07,0.0,0.0,0.0,1.2184696791468346e-07,-0.00980665,-0.1667130499999988,9.58109705,8.999999999999999e-08,0.0,0.0,0.0,8.999999999999999e-08,0.0,0.0,0.0,8.999999999999999e-08
1737285473.5370636,12917,1737285473,533673152,base_link,-0.014981208681783957,0.04808645292518693,-0.65532951406242,-0.7536620492171667,1.0,0.0,0.0,0.0,1.0,0.0,0.0,0.0,1.0,-0.344561904668808,-0.052318800240754915,1.3632547855377197,1.2184696791468346e-07,0.0,0.0,0.0,1.2184696791468346e-07,0.0,0.0,0.0,1.2184696791468346e-07,0.08825985,-0.37265269999999884,9.7085835,8.999999999999999e-08,0.0,0.0,0.0,8.999999999999999e-08,0.0,0.0,0.0,8.999999999999999e-08
1737285473.6370547,12918,1737285473,633674176,base_link,-0.00749948159822825,0.048837676949189675,-0.6986212727230192,-0.7137835500940278,1.0,0.0,0.0,0.0,1.0,0.0,0.0,0.0,1.0,-0.42987772822380066,0.2651332616806032,1.4944804906845093,1.2184696791468346e-07,0.0,0.0,0.0,1.2184696791468346e-07,0.0,0.0,0.0,1.2184696791468346e-07,0.08825985,-0.49033249999999884,9.9243298,8.999999999999999e-08,0.0,0.0,0.0,8.999999999999999e-08,0.0,0.0,0.0,8.999999999999999e-08
1737285473.7370098,12919,1737285473,733673920,base_link,0.00012450581466984747,0.04227620625573072,-0.7467932453224632,-0.6637111989590565,1.0,0.0,0.0,0.0,1.0,0.0,0.0,0.0,1.0,0.0420033298432827,0.32196137309074424,1.8331553936004639,1.2184696791468346e-07,0.0,0.0,0.0,1.2184696791468346e-07,0.0,0.0,0.0,1.2184696791468346e-07,0.1372931,-0.6276255999999988,9.6889702,8.999999999999999e-08,0.0,0.0,0.0,8.999999999999999e-08,0.0,0.0,0.0,8.999999999999999e-08
1737285473.8370962,12920,1737285473,833674944,base_link,0.004933542319622191,0.030655439590823473,-0.7952232235732251,-0.6055212043136743,1.0,0.0,0.0,0.0,1.0,0.0,0.0,0.0,1.0,0.0780361220240593,0.1832898259162905,1.8865758180618286,1.2184696791468346e-07,0.0,0.0,0.0,1.2184696791468346e-07,0.0,0.0,0.0,1.2184696791468346e-07,0.0588399,-0.6178189499999989,9.79684335,8.999999999999999e-08,0.0,0.0,0.0,8.999999999999999e-08,0.0,0.0,0.0,8.999999999999999e-08
1737285473.937407,12921,1737285473,933675712,base_link,0.010408411624446536,0.022570514949066013,-0.8422981712022174,-0.5384385086635151,1.0,0.0,0.0,0.0,1.0,0.0,0.0,0.0,1.0,-0.11364739388227463,0.02896781638264673,1.3914319276809692,1.2184696791468346e-07,0.0,0.0,0.0,1.2184696791468346e-07,0.0,0.0,0.0,1.2184696791468346e-07,0.06864655,-0.45110589999999884,9.83606995,8.999999999999999e-08,0.0,0.0,0.0,8.999999999999999e-08,0.0,0.0,0.0,8.999999999999999e-08
1737285474.037537,12922,1737285474,33676736,base_link,0.008497182324518732,0.015212678239321263,-0.8848459043974954,-0.4655578350584481,1.0,0.0,0.0,0.0,1.0,0.0,0.0,0.0,1.0,0.21350790560245514,-0.1816561073064802,1.583274483680725,1.2184696791468346e-07,0.0,0.0,0.0,1.2184696791468346e-07,0.0,0.0,0.0,1.2184696791468346e-07,-0.06864655,-0.5491723999999988,9.6889702,8.999999999999999e-08,0.0,0.0,0.0,8.999999999999999e-08,0.0,0.0,0.0,8.999999999999999e-08
1737285474.1370707,12923,1737285474,134676480,base_link,0.0029834320819987423,0.010668278632275433,-0.9206146523387154,-0.3903151916891044,1.0,0.0,0.0,0.0,1.0,0.0,0.0,0.0,1.0,0.1604231595993042,-0.10839658230543116,1.7268905639648438,1.2184696791468346e-07,0.0,0.0,0.0,1.2184696791468346e-07,0.0,0.0,0.0,1.2184696791468346e-07,-0.00980665,-0.3628460499999988,9.80665,8.999999999999999e-08,0.0,0.0,0.0,8.999999999999999e-08,0.0,0.0,0.0,8.999999999999999e-08
1737285474.2385378,12924,1737285474,233677504,base_link,-0.0006812160542107249,0.011348234930190495,-0.94835547960055,-0.31700573783492836,1.0,0.0,0.0,0.0,1.0,0.0,0.0,0.0,1.0,0.3064897358417511,-0.20795769989490492,1.370383381843567,1.2184696791468346e-07,0.0,0.0,0.0,1.2184696791468346e-07,0.0,0.0,0.0,1.2184696791468346e-07,-0.02941995,-0.4805258499999988,9.83606995,8.999999999999999e-08,0.0,0.0,0.0,8.999999999999999e-08,0.0,0.0,0.0,8.999999999999999e-08
1737285474.3385482,12925,1737285474,333679040,base_link,-0.004050314945407719,0.009703939830967116,-0.9693162720087583,-0.24559192437790556,1.0,0.0,0.0,0.0,1.0,0.0,0.0,0.0,1.0,-0.283853143453598,-0.03750970959663371,1.6669803857803345,1.2184696791468346e-07,0.0,0.0,0.0,1.2184696791468346e-07,0.0,0.0,0.0,1.2184696791468346e-07,-0.06864655,-0.4216859499999988,9.83606995,8.999999999999999e-08,0.0,0.0,0.0,8.999999999999999e-08,0.0,0.0,0.0,8.999999999999999e-08
1737285474.43844,12926,1737285474,433679808,base_link,-0.004642691126750873,0.007355763063305385,-0.9837299678638567,-0.17944271647362398,1.0,0.0,0.0,0.0,1.0,0.0,0.0,0.0,1.0,-0.02719716727733612,0.28157308697700517,1.3566083908081055,1.2184696791468346e-07,0.0,0.0,0.0,1.2184696791468346e-07,0.0,0.0,0.0,1.2184696791468346e-07,-0.0588399,-0.5001391499999988,10.03220295,8.999999999999999e-08,0.0,0.0,0.0,8.999999999999999e-08,0.0,0.0,0.0,8.999999999999999e-08
1737285474.5432463,12927,1737285474,533671104,base_link,-0.007350677358639022,0.00499434270461846,-0.9926344717728617,-0.12082147793968423,1.0,0.0,0.0,0.0,1.0,0.0,0.0,0.0,1.0,-0.3616158664226532,0.14349946379661574,1.081099271774292,1.2184696791468346e-07,0.0,0.0,0.0,1.2184696791468346e-07,0.0,0.0,0.0,1.2184696791468346e-07,-0.1569064,-0.6570455499999988,9.91452315,8.999999999999999e-08,0.0,0.0,0.0,8.999999999999999e-08,0.0,0.0,0.0,8.999999999999999e-08
1737285474.6386342,12928,1737285474,633670848,base_link,-0.011330270519933183,0.006580204818546625,-0.9976138581831353,-0.06778580851070853,1.0,0.0,0.0,0.0,1.0,0.0,0.0,0.0,1.0,-0.48659732937812805,-0.07468906044960011,0.9371540546417236,1.2184696791468346e-07,0.0,0.0,0.0,1.2184696791468346e-07,0.0,0.0,0.0,1.2184696791468346e-07,-0.196133,-0.4609125499999988,9.91452315,8.999999999999999e-08,0.0,0.0,0.0,8.999999999999999e-08,0.0,0.0,0.0,8.999999999999999e-08
1737285474.7362626,12929,1737285474,733670592,base_link,-0.012244142976655673,0.005170823048178786,-0.9996949976319705,-0.0208147846826805,1.0,0.0,0.0,0.0,1.0,0.0,0.0,0.0,1.0,-0.05908488482236862,0.13910877704620372,0.9479044079780579,1.2184696791468346e-07,0.0,0.0,0.0,1.2184696791468346e-07,0.0,0.0,0.0,1.2184696791468346e-07,-0.18632635,-0.5491723999999988,9.95374975,8.999999999999999e-08,0.0,0.0,0.0,8.999999999999999e-08,0.0,0.0,0.0,8.999999999999999e-08
1737285474.8390245,12930,1737285474,833670080,base_link,-0.01191521032309934,0.005930522399982061,-0.9996582265407405,0.022500817239401005,1.0,0.0,0.0,0.0,1.0,0.0,0.0,0.0,1.0,-0.40914586186408997,0.18411435186862957,0.8698017001152039,1.2184696791468346e-07,0.0,0.0,0.0,1.2184696791468346e-07,0.0,0.0,0.0,1.2184696791468346e-07,-0.16671305,-0.6766588499999987,10.05181625,8.999999999999999e-08,0.0,0.0,0.0,8.999999999999999e-08,0.0,0.0,0.0,8.999999999999999e-08
1737285474.9376514,12931,1737285474,933669824,base_link,-0.010680200619490548,0.008490059171900424,-0.9978183829745171,0.0645935508244081,1.0,0.0,0.0,0.0,1.0,0.0,0.0,0.0,1.0,-0.30044347047805786,0.024986909702420325,0.7344542741775513,1.2184696791468346e-07,0.0,0.0,0.0,1.2184696791468346e-07,0.0,0.0,0.0,1.2184696791468346e-07,-0.2549729,-0.4412992499999988,9.91452315,8.999999999999999e-08,0.0,0.0,0.0,8.999999999999999e-08,0.0,0.0,0.0,8.999999999999999e-08
1737285475.0413833,12932,1737285475,33669312,base_link,-0.012458815620396904,0.004999505466418341,-0.994345614663509,0.10534031259625387,1.0,0.0,0.0,0.0,1.0,0.0,0.0,0.0,1.0,0.249368816614151,-0.356315404176712,0.6313984394073486,1.2184696791468346e-07,0.0,0.0,0.0,1.2184696791468346e-07,0.0,0.0,0.0,1.2184696791468346e-07,-0.196133,-0.5001391499999988,9.97336305,8.999999999999999e-08,0.0,0.0,0.0,8.999999999999999e-08,0.0,0.0,0.0,8.999999999999999e-08
1737285475.1435385,12933,1737285475,133669056,base_link,-0.01206176208859625,0.004048208523805387,-0.9886175087313862,0.14991179851103542,1.0,0.0,0.0,0.0,1.0,0.0,0.0,0.0,1.0,-0.010702457278966904,-0.016384016722440588,1.07289457321167,1.2184696791468346e-07,0.0,0.0,0.0,1.2184696791468346e-07,0.0,0.0,0.0,1.2184696791468346e-07,-0.10787315,-0.23535959999999875,10.13026945,8.999999999999999e-08,0.0,0.0,0.0,8.999999999999999e-08,0.0,0.0,0.0,8.999999999999999e-08
1737285475.2374678,12934,1737285475,233668800,base_link,-0.011585347257718611,0.008336718720740023,-0.9808191035318539,0.19439692640795508,1.0,0.0,0.0,0.0,1.0,0.0,0.0,0.0,1.0,-0.007315111346542835,0.002832301426678988,0.7504664659500122,1.2184696791468346e-07,0.0,0.0,0.0,1.2184696791468346e-07,0.0,0.0,0.0,1.2184696791468346e-07,0.0,-0.3726526999999987,10.16949605,8.999999999999999e-08,0.0,0.0,0.0,8.999999999999999e-08,0.0,0.0,0.0,8.999999999999999e-08
1737285475.3362167,12935,1737285475,333661888,base_link,-0.014079270806216128,0.006949802735109295,-0.9705382580242794,0.24043494772329932,1.0,0.0,0.0,0.0,1.0,0.0,0.0,0.0,1.0,0.3209590017795563,-0.11085318028926837,1.012398600578308,1.2184696791468346e-07,0.0,0.0,0.0,1.2184696791468346e-07,0.0,0.0,0.0,1.2184696791468346e-07,-0.12748645,-0.44129924999999876,10.03220295,8.999999999999999e-08,0.0,0.0,0.0,8.999999999999999e-08,0.0,0.0,0.0,8.999999999999999e-08
1737285475.4377804,12936,1737285475,433661632,base_link,-0.013528828879734727,0.00889469985506092,-0.9574223669621009,0.28823647642919764,1.0,0.0,0.0,0.0,1.0,0.0,0.0,0.0,1.0,0.0753600001335144,-0.09899500757455816,0.8104372024536133,1.2184696791468346e-07,0.0,0.0,0.0,1.2184696791468346e-07,0.0,0.0,0.0,1.2184696791468346e-07,0.02941995,-0.24516624999999878,10.07142955,8.999999999999999e-08,0.0,0.0,0.0,8.999999999999999e-08,0.0,0.0,0.0,8.999999999999999e-08
1737285475.5363035,12937,1737285475,533661632,base_link,-0.013872174297209711,0.008406341443347199,-0.9412377658307127,0.337354953095125,1.0,0.0,0.0,0.0,1.0,0.0,0.0,0.0,1.0,-0.2831302881240845,0.01645625382661834,1.178234338760376,1.2184696791468346e-07,0.0,0.0,0.0,1.2184696791468346e-07,0.0,0.0,0.0,1.2184696791468346e-07,-0.16671305,-0.3530393999999987,10.05181625,8.999999999999999e-08,0.0,0.0,0.0,8.999999999999999e-08,0.0,0.0,0.0,8.999999999999999e-08
1737285475.6362224,12938,1737285475,633661376,base_link,-0.010369086109451784,0.020211006988642966,-0.9237955000141171,0.3822118148401844,1.0,0.0,0.0,0.0,1.0,0.0,0.0,0.0,1.0,-0.580976665019989,0.25975924730300914,0.8379476070404053,1.2184696791468346e-07,0.0,0.0,0.0,1.2184696791468346e-07,0.0,0.0,0.0,1.2184696791468346e-07,-0.02941995,-0.3334260999999987,10.1596894,8.999999999999999e-08,0.0,0.0,0.0,8.999999999999999e-08,0.0,0.0,0.0,8.999999999999999e-08
1737285475.7362483,12939,1737285475,733665728,base_link,0.003762559359796359,0.03722615047714677,-0.9090792049357153,0.41493982216842584,1.0,0.0,0.0,0.0,1.0,0.0,0.0,0.0,1.0,-0.11605927348136902,0.6531640887260438,0.6001710295677184,1.2184696791468346e-07,0.0,0.0,0.0,1.2184696791468346e-07,0.0,0.0,0.0,1.2184696791468346e-07,-0.1176798,-0.3138127999999987,10.14988275,8.999999999999999e-08,0.0,0.0,0.0,8.999999999999999e-08,0.0,0.0,0.0,8.999999999999999e-08
1737285475.836661,12940,1737285475,833665472,base_link,0.02596121447711853,0.058406801259205665,-0.8979293003859752,0.43547403185252465,1.0,0.0,0.0,0.0,1.0,0.0,0.0,0.0,1.0,0.10835937410593033,0.6572520136833191,0.37717714905738825,1.2184696791468346e-07,0.0,0.0,0.0,1.2184696791468346e-07,0.0,0.0,0.0,1.2184696791468346e-07,0.0,-0.4216859499999987,10.6500219,8.999999999999999e-08,0.0,0.0,0.0,8.999999999999999e-08,0.0,0.0,0.0,8.999999999999999e-08
1737285475.9363759,12941,1737285475,933665472,base_link,0.05288037656664789,0.07652966313685793,-0.886883388826629,0.4525314696877146,1.0,0.0,0.0,0.0,1.0,0.0,0.0,0.0,1.0,-0.4843713343143463,0.7813959121704103,0.5583028197288512,1.2184696791468346e-07,0.0,0.0,0.0,1.2184696791468346e-07,0.0,0.0,0.0,1.2184696791468346e-07,0.0,-0.41187929999999867,10.67944185,8.999999999999999e-08,0.0,0.0,0.0,8.999999999999999e-08,0.0,0.0,0.0,8.999999999999999e-08
1737285476.0384345,12942,1737285476,33665216,base_link,0.07879959536212182,0.08978900312497753,-0.8735527888302894,0.4718411637568437,1.0,0.0,0.0,0.0,1.0,0.0,0.0,0.0,1.0,-0.47374460101127625,0.6503015160560609,0.6021185517311095,1.2184696791468346e-07,0.0,0.0,0.0,1.2184696791468346e-07,0.0,0.0,0.0,1.2184696791468346e-07,-0.1372931,-0.3530393999999987,10.4931155,8.999999999999999e-08,0.0,0.0,0.0,8.999999999999999e-08,0.0,0.0,0.0,8.999999999999999e-08
1737285476.1367357,12943,1737285476,133665216,base_link,0.1007077396445381,0.09778491782808829,-0.8568115019977491,0.4961553295747241,1.0,0.0,0.0,0.0,1.0,0.0,0.0,0.0,1.0,0.06428452581167221,0.2787341475486756,0.409690648317337,1.2184696791468346e-07,0.0,0.0,0.0,1.2184696791468346e-07,0.0,0.0,0.0,1.2184696791468346e-07,-0.2941995,-0.4511058999999987,10.24794925,8.999999999999999e-08,0.0,0.0,0.0,8.999999999999999e-08,0.0,0.0,0.0,8.999999999999999e-08
1737285476.2366908,12944,1737285476,233664960,base_link,0.10681129826661942,0.09869415850485909,-0.8373460197923204,0.526974812280033,1.0,0.0,0.0,0.0,1.0,0.0,0.0,0.0,1.0,-0.17968463897705078,0.006797743961215107,0.7129723429679871,1.2184696791468346e-07,0.0,0.0,0.0,1.2184696791468346e-07,0.0,0.0,0.0,1.2184696791468346e-07,-0.3138128,-0.26477954999999875,10.355822400000001,8.999999999999999e-08,0.0,0.0,0.0,8.999999999999999e-08,0.0,0.0,0.0,8.999999999999999e-08
1737285476.3374712,12945,1737285476,334665472,base_link,0.0885185836168621,0.08342186659550396,-0.8203643260965849,0.5587554250262653,1.0,0.0,0.0,0.0,1.0,0.0,0.0,0.0,1.0,0.16745631396770477,-0.7718644142150878,0.9085968136787416,1.2184696791468346e-07,0.0,0.0,0.0,1.2184696791468346e-07,0.0,0.0,0.0,1.2184696791468346e-07,-0.6472389000000001,-0.5589790499999987,10.3362091,8.999999999999999e-08,0.0,0.0,0.0,8.999999999999999e-08,0.0,0.0,0.0,8.999999999999999e-08
1737285476.437761,12946,1737285476,433665216,base_link,0.061186248554296295,0.06995154151624454,-0.8044072531497302,0.586764003588716,1.0,0.0,0.0,0.0,1.0,0.0,0.0,0.0,1.0,-0.6172575950622559,-0.4902233183383941,0.6057791113853456,1.2184696791468346e-07,0.0,0.0,0.0,1.2184696791468346e-07,0.0,0.0,0.0,1.2184696791468346e-07,-0.3530394,-0.24516624999999873,10.4146623,8.999999999999999e-08,0.0,0.0,0.0,8.999999999999999e-08,0.0,0.0,0.0,8.999999999999999e-08
1737285476.537625,12947,1737285476,533665472,base_link,0.03641488804221057,0.05226386674641206,-0.7930037426593336,0.6058774696998361,1.0,0.0,0.0,0.0,1.0,0.0,0.0,0.0,1.0,0.368086040019989,-0.6695324778556824,0.31946888566017156,1.2184696791468346e-07,0.0,0.0,0.0,1.2184696791468346e-07,0.0,0.0,0.0,1.2184696791468346e-07,-0.24516625,-0.4707191999999987,10.13026945,8.999999999999999e-08,0.0,0.0,0.0,8.999999999999999e-08,0.0,0.0,0.0,8.999999999999999e-08
1737285476.6395082,12948,1737285476,633665472,base_link,0.02124859895938819,0.044998423128175875,-0.7849871610822551,0.6175101585352767,1.0,0.0,0.0,0.0,1.0,0.0,0.0,0.0,1.0,-0.3173079490661621,-0.28017723560333246,0.3317036926746369,1.2184696791468346e-07,0.0,0.0,0.0,1.2184696791468346e-07,0.0,0.0,0.0,1.2184696791468346e-07,-0.1569064,-0.3530393999999987,10.179302700000001,8.999999999999999e-08,0.0,0.0,0.0,8.999999999999999e-08,0.0,0.0,0.0,8.999999999999999e-08
1737285476.7366123,12949,1737285476,733665984,base_link,0.015038630386435232,0.0398018850322361,-0.7829143736016035,0.6206728068410837,1.0,0.0,0.0,0.0,1.0,0.0,0.0,0.0,1.0,0.43308761715888977,-0.12002745270729066,-0.10594387352466582,1.2184696791468346e-07,0.0,0.0,0.0,1.2184696791468346e-07,0.0,0.0,0.0,1.2184696791468346e-07,-0.4314926,-0.4020726499999988,9.8262633,8.999999999999999e-08,0.0,0.0,0.0,8.999999999999999e-08,0.0,0.0,0.0,8.999999999999999e-08
1737285476.8381689,12950,1737285476,833666240,base_link,0.014819776662424494,0.03855499108600837,-0.7839339136216036,0.6194687287958531,1.0,0.0,0.0,0.0,1.0,0.0,0.0,0.0,1.0,-0.328677237033844,0.026731563732028014,0.06457957625389099,1.2184696791468346e-07,0.0,0.0,0.0,1.2184696791468346e-07,0.0,0.0,0.0,1.2184696791468346e-07,-0.1372931,-0.3040061499999988,9.80665,8.999999999999999e-08,0.0,0.0,0.0,8.999999999999999e-08,0.0,0.0,0.0,8.999999999999999e-08
1737285476.9378278,12951,1737285476,933666240,base_link,0.009705598437395623,0.03228540087647384,-0.7891041929840312,0.613333536392914,1.0,0.0,0.0,0.0,1.0,0.0,0.0,0.0,1.0,0.20779044926166534,-0.2947947978973389,-0.30749219655990595,1.2184696791468346e-07,0.0,0.0,0.0,1.2184696791468346e-07,0.0,0.0,0.0,1.2184696791468346e-07,-0.50013915,-0.2451662499999988,9.79684335,8.999999999999999e-08,0.0,0.0,0.0,8.999999999999999e-08,0.0,0.0,0.0,8.999999999999999e-08
1737285477.0365787,12952,1737285477,33666496,base_link,-0.002818920863612701,0.026913224317739546,-0.7946489579665398,0.6064657992374181,1.0,0.0,0.0,0.0,1.0,0.0,0.0,0.0,1.0,0.20063023269176483,-0.4602391123771668,-0.2673587799072265,1.2184696791468346e-07,0.0,0.0,0.0,1.2184696791468346e-07,0.0,0.0,0.0,1.2184696791468346e-07,-0.3726527,-0.17651969999999878,9.9243298,8.999999999999999e-08,0.0,0.0,0.0,8.999999999999999e-08,0.0,0.0,0.0,8.999999999999999e-08
1737285477.1369529,12953,1737285477,133666752,base_link,-0.013516802240165566,0.016012099141231747,-0.8010195290064672,0.5982713622500654,1.0,0.0,0.0,0.0,1.0,0.0,0.0,0.0,1.0,-0.041177697479724884,-0.41041859984397894,-0.23604479432106013,1.2184696791468346e-07,0.0,0.0,0.0,1.2184696791468346e-07,0.0,0.0,0.0,1.2184696791468346e-07,-0.4903325,-0.31381279999999884,9.6889702,8.999999999999999e-08,0.0,0.0,0.0,8.999999999999999e-08,0.0,0.0,0.0,8.999999999999999e-08
1737285477.2365901,12954,1737285477,233667008,base_link,-0.02586369933894435,0.0032141641979597903,-0.8070629752366999,0.5898898983768911,1.0,0.0,0.0,0.0,1.0,0.0,0.0,0.0,1.0,-0.0605458989739418,-0.3459385037422181,-0.277755320072174,1.2184696791468346e-07,0.0,0.0,0.0,1.2184696791468346e-07,0.0,0.0,0.0,1.2184696791468346e-07,-0.46091255,-0.4609125499999988,9.6301303,8.999999999999999e-08,0.0,0.0,0.0,8.999999999999999e-08,0.0,0.0,0.0,8.999999999999999e-08
1737285477.336822,12955,1737285477,333667264,base_link,-0.03421145108564346,-0.008541817354180343,-0.8121475269477914,0.5823856183350419,1.0,0.0,0.0,0.0,1.0,0.0,0.0,0.0,1.0,0.1385957896709442,-0.24375680088996893,-0.4121025204658508,1.2184696791468346e-07,0.0,0.0,0.0,1.2184696791468346e-07,0.0,0.0,0.0,1.2184696791468346e-07,-0.3726527,-0.3236194499999988,9.62032365,8.999999999999999e-08,0.0,0.0,0.0,8.999999999999999e-08,0.0,0.0,0.0,8.999999999999999e-08
1737285477.4368284,12956,1737285477,433667776,base_link,-0.040467210150984395,-0.015350140912085228,-0.8158173378834775,0.5766878265450822,1.0,0.0,0.0,0.0,1.0,0.0,0.0,0.0,1.0,0.24967503547668457,-0.43400821089744573,-0.37584868073463434,1.2184696791468346e-07,0.0,0.0,0.0,1.2184696791468346e-07,0.0,0.0,0.0,1.2184696791468346e-07,-0.2941995,-0.3432327499999988,9.7478101,8.999999999999999e-08,0.0,0.0,0.0,8.999999999999999e-08,0.0,0.0,0.0,8.999999999999999e-08
1737285477.5377786,12957,1737285477,533668032,base_link,-0.04749518281113058,-0.02156423457075963,-0.8174422645999583,0.5736439099675044,1.0,0.0,0.0,0.0,1.0,0.0,0.0,0.0,1.0,0.30631953477859497,-0.26881885528564453,-0.06409492343664167,1.2184696791468346e-07,0.0,0.0,0.0,1.2184696791468346e-07,0.0,0.0,0.0,1.2184696791468346e-07,-0.34323275,-0.2353595999999988,9.7674234,8.999999999999999e-08,0.0,0.0,0.0,8.999999999999999e-08,0.0,0.0,0.0,8.999999999999999e-08
1737285477.6368437,12958,1737285477,633668288,base_link,-0.05393459209354011,-0.022018248002249014,-0.8177706325337077,0.5725883766686454,1.0,0.0,0.0,0.0,1.0,0.0,0.0,0.0,1.0,-0.3122231960296631,0.06625775247812273,0.07217483222484587,1.2184696791468346e-07,0.0,0.0,0.0,1.2184696791468346e-07,0.0,0.0,0.0,1.2184696791468346e-07,-0.22555295,-0.23535959999999878,9.87529655,8.999999999999999e-08,0.0,0.0,0.0,8.999999999999999e-08,0.0,0.0,0.0,8.999999999999999e-08
1737285477.7382152,12959,1737285477,733668800,base_link,-0.05724124792723823,-0.02239688330883912,-0.8175600921348497,0.5725533293084921,1.0,0.0,0.0,0.0,1.0,0.0,0.0,0.0,1.0,-0.1252482682466507,0.13473550975322723,-0.016508173197507876,1.2184696791468346e-07,0.0,0.0,0.0,1.2184696791468346e-07,0.0,0.0,0.0,1.2184696791468346e-07,-0.26477955,-0.33342609999999884,9.8654899,8.999999999999999e-08,0.0,0.0,0.0,8.999999999999999e-08,0.0,0.0,0.0,8.999999999999999e-08
1737285477.8367124,12960,1737285477,833669056,base_link,-0.05384465974370283,-0.01741929149219122,-0.8171613545414379,0.5736241291516573,1.0,0.0,0.0,0.0,1.0,0.0,0.0,0.0,1.0,-0.590469241142273,0.3762260377407074,0.04760151728987689,1.2184696791468346e-07,0.0,0.0,0.0,1.2184696791468346e-07,0.0,0.0,0.0,1.2184696791468346e-07,-0.3530394,-0.5295590999999988,9.87529655,8.999999999999999e-08,0.0,0.0,0.0,8.999999999999999e-08,0.0,0.0,0.0,8.999999999999999e-08
1737285477.9367156,12961,1737285477,933669568,base_link,-0.03282494628788338,-0.007399919194506659,-0.8170472187407996,0.5755880527295857,1.0,0.0,0.0,0.0,1.0,0.0,0.0,0.0,1.0,-0.2788875102996826,0.6679746508598328,0.23116080462932578,1.2184696791468346e-07,0.0,0.0,0.0,1.2184696791468346e-07,0.0,0.0,0.0,1.2184696791468346e-07,0.0,-0.4609125499999988,9.83606995,8.999999999999999e-08,0.0,0.0,0.0,8.999999999999999e-08,0.0,0.0,0.0,8.999999999999999e-08
1737285478.0379472,12962,1737285478,34670080,base_link,-0.009130874426111607,0.007851625853255056,-0.8167375458354186,0.5768836627314149,1.0,0.0,0.0,0.0,1.0,0.0,0.0,0.0,1.0,-0.27765193581581116,0.6627910733222961,0.19854505360126487,1.2184696791468346e-07,0.0,0.0,0.0,1.2184696791468346e-07,0.0,0.0,0.0,1.2184696791468346e-07,-0.14709975,-0.48052584999999876,10.03220295,8.999999999999999e-08,0.0,0.0,0.0,8.999999999999999e-08,0.0,0.0,0.0,8.999999999999999e-08
1737285478.1369786,12963,1737285478,133670592,base_link,-0.0038197704943799897,0.017646566514042214,-0.8165694395466968,0.5769647809373022,1.0,0.0,0.0,0.0,1.0,0.0,0.0,0.0,1.0,-0.21597006916999817,0.2430812567472458,-0.0177290923893452,1.2184696791468346e-07,0.0,0.0,0.0,1.2184696791468346e-07,0.0,0.0,0.0,1.2184696791468346e-07,-0.5491724,-0.42168594999999875,10.14988275,8.999999999999999e-08,0.0,0.0,0.0,8.999999999999999e-08,0.0,0.0,0.0,8.999999999999999e-08
1737285478.2368999,12964,1737285478,233670848,base_link,0.0036521325659905506,0.028784013549817876,-0.816481911751481,0.5766415093230207,1.0,0.0,0.0,0.0,1.0,0.0,0.0,0.0,1.0,-0.4823324680328369,0.4991442859172821,-0.02628101967275149,1.2184696791468346e-07,0.0,0.0,0.0,1.2184696791468346e-07,0.0,0.0,0.0,1.2184696791468346e-07,-0.3530394,-0.5001391499999988,10.1008495,8.999999999999999e-08,0.0,0.0,0.0,8.999999999999999e-08,0.0,0.0,0.0,8.999999999999999e-08
1737285478.3369908,12965,1737285478,333670080,base_link,0.013891287307238289,0.03853070685397465,-0.8164986078311067,0.5758927332204716,1.0,0.0,0.0,0.0,1.0,0.0,0.0,0.0,1.0,-0.6108695268630981,0.26086321473121643,0.13913086056709287,1.2184696791468346e-07,0.0,0.0,0.0,1.2184696791468346e-07,0.0,0.0,0.0,1.2184696791468346e-07,-0.10787315,-0.48052584999999876,10.1008495,8.999999999999999e-08,0.0,0.0,0.0,8.999999999999999e-08,0.0,0.0,0.0,8.999999999999999e-08
1737285478.4366686,12966,1737285478,433671104,base_link,0.012447495283949112,0.038798745554234175,-0.8179909957624124,0.5737860647106994,1.0,0.0,0.0,0.0,1.0,0.0,0.0,0.0,1.0,-0.5976892709732056,0.028869949281215685,0.13942301273345947,1.2184696791468346e-07,0.0,0.0,0.0,1.2184696791468346e-07,0.0,0.0,0.0,1.2184696791468346e-07,-0.51975245,-0.38245934999999875,10.4735022,8.999999999999999e-08,0.0,0.0,0.0,8.999999999999999e-08,0.0,0.0,0.0,8.999999999999999e-08
1737285478.5365489,12967,1737285478,533670080,base_link,0.0070676690487812615,0.033661166962998125,-0.8200608211745224,0.5712418257336153,1.0,0.0,0.0,0.0,1.0,0.0,0.0,0.0,1.0,-0.18942159414291382,0.013992914929986014,0.11930873245000839,1.2184696791468346e-07,0.0,0.0,0.0,1.2184696791468346e-07,0.0,0.0,0.0,1.2184696791468346e-07,-0.4314926,-0.3922659999999987,10.4342756,8.999999999999999e-08,0.0,0.0,0.0,8.999999999999999e-08,0.0,0.0,0.0,8.999999999999999e-08
1737285478.636707,12968,1737285478,633670592,base_link,0.016746160387042294,0.030764535655314628,-0.8221299890933175,0.5682212513551619,1.0,0.0,0.0,0.0,1.0,0.0,0.0,0.0,1.0,0.11896827071905136,0.20420360565185547,0.09097293019294736,1.2184696791468346e-07,0.0,0.0,0.0,1.2184696791468346e-07,0.0,0.0,0.0,1.2184696791468346e-07,-0.06864655,-0.46091254999999876,10.24794925,8.999999999999999e-08,0.0,0.0,0.0,8.999999999999999e-08,0.0,0.0,0.0,8.999999999999999e-08
1737285478.7369523,12969,1737285478,733669824,base_link,0.03299046569872751,0.037729263585246836,-0.82266735202589,0.5663095970871466,1.0,0.0,0.0,0.0,1.0,0.0,0.0,0.0,1.0,0.22136102616786957,0.20945380628108978,0.03648792952299115,1.2184696791468346e-07,0.0,0.0,0.0,1.2184696791468346e-07,0.0,0.0,0.0,1.2184696791468346e-07,-0.0588399,-0.21574629999999875,10.30678915,8.999999999999999e-08,0.0,0.0,0.0,8.999999999999999e-08,0.0,0.0,0.0,8.999999999999999e-08
1737285478.8393629,12970,1737285478,833670336,base_link,0.04637834871573981,0.04744162501074647,-0.8214863468481228,0.5663554739992069,1.0,0.0,0.0,0.0,1.0,0.0,0.0,0.0,1.0,-0.264470636844635,0.40719681978225714,0.2695550918579101,1.2184696791468346e-07,0.0,0.0,0.0,1.2184696791468346e-07,0.0,0.0,0.0,1.2184696791468346e-07,-0.20593965,-0.38245934999999875,10.30678915,8.999999999999999e-08,0.0,0.0,0.0,8.999999999999999e-08,0.0,0.0,0.0,8.999999999999999e-08
1737285478.9367797,12971,1737285478,933669312,base_link,0.04969690259271079,0.05103029103410932,-0.8203348345146697,0.567430071948477,1.0,0.0,0.0,0.0,1.0,0.0,0.0,0.0,1.0,-0.5509939789772034,0.1119653880596161,0.1178009510040283,1.2184696791468346e-07,0.0,0.0,0.0,1.2184696791468346e-07,0.0,0.0,0.0,1.2184696791468346e-07,-0.28439285000000003,-0.4314925999999987,10.1596894,8.999999999999999e-08,0.0,0.0,0.0,8.999999999999999e-08,0.0,0.0,0.0,8.999999999999999e-08
1737285479.0372095,12972,1737285479,34669824,base_link,0.033990722672642255,0.03900173926045847,-0.8210943734521241,0.5684430710212892,1.0,0.0,0.0,0.0,1.0,0.0,0.0,0.0,1.0,0.31541886925697327,-0.8141716122627258,-0.15350545942783345,1.2184696791468346e-07,0.0,0.0,0.0,1.2184696791468346e-07,0.0,0.0,0.0,1.2184696791468346e-07,-0.5099458,-0.4707191999999987,10.13026945,8.999999999999999e-08,0.0,0.0,0.0,8.999999999999999e-08,0.0,0.0,0.0,8.999999999999999e-08
1737285479.136982,12973,1737285479,133670336,base_link,0.0105364403367455,0.024892172530351732,-0.8188947836220519,0.5733068083743139,1.0,0.0,0.0,0.0,1.0,0.0,0.0,0.0,1.0,0.04093040153384209,-0.6743497848510742,0.24113707244396218,1.2184696791468346e-07,0.0,0.0,0.0,1.2184696791468346e-07,0.0,0.0,0.0,1.2184696791468346e-07,-0.42168595,-0.22555294999999878,10.0223963,8.999999999999999e-08,0.0,0.0,0.0,8.999999999999999e-08,0.0,0.0,0.0,8.999999999999999e-08
1737285479.2367766,12974,1737285479,233671104,base_link,-0.012380334013351488,0.01556597930407222,-0.8155512195377994,0.5783430088869675,1.0,0.0,0.0,0.0,1.0,0.0,0.0,0.0,1.0,-0.10348010063171387,-0.5277882814407349,0.267900437116623,1.2184696791468346e-07,0.0,0.0,0.0,1.2184696791468346e-07,0.0,0.0,0.0,1.2184696791468346e-07,-0.3138128,-0.36284604999999875,10.0812362,8.999999999999999e-08,0.0,0.0,0.0,8.999999999999999e-08,0.0,0.0,0.0,8.999999999999999e-08
1737285479.338292,12975,1737285479,333675968,base_link,-0.026587282426701796,0.0060923287145562945,-0.8121785213058862,0.5827710094654508,1.0,0.0,0.0,0.0,1.0,0.0,0.0,0.0,1.0,0.1282026171684265,-0.2904037833213806,0.1992382258176804,1.2184696791468346e-07,0.0,0.0,0.0,1.2184696791468346e-07,0.0,0.0,0.0,1.2184696791468346e-07,-0.30400615,-0.5687856999999987,10.0223963,8.999999999999999e-08,0.0,0.0,0.0,8.999999999999999e-08,0.0,0.0,0.0,8.999999999999999e-08
1737285479.4445198,12976,1737285479,434676736,base_link,-0.028638782541842732,-0.0014503001056419506,-0.8096576570812364,0.5862014970075117,1.0,0.0,0.0,0.0,1.0,0.0,0.0,0.0,1.0,0.3091115951538086,-0.10000213235616683,0.11146526783704759,1.2184696791468346e-07,0.0,0.0,0.0,1.2184696791468346e-07,0.0,0.0,0.0,1.2184696791468346e-07,-0.22555295,-0.4118792999999987,10.05181625,8.999999999999999e-08,0.0,0.0,0.0,8.999999999999999e-08,0.0,0.0,0.0,8.999999999999999e-08
1737285479.5367658,12977,1737285479,533676224,base_link,-0.02938209828174577,-0.0034117672004075677,-0.8078127385175085,0.5886965531018298,1.0,0.0,0.0,0.0,1.0,0.0,0.0,0.0,1.0,0.4135037660598755,-0.22273071110248566,0.00022651161998513087,1.2184696791468346e-07,0.0,0.0,0.0,1.2184696791468346e-07,0.0,0.0,0.0,1.2184696791468346e-07,-0.1765197,-0.15690639999999875,10.05181625,8.999999999999999e-08,0.0,0.0,0.0,8.999999999999999e-08,0.0,0.0,0.0,8.999999999999999e-08
1737285479.6393878,12978,1737285479,633676992,base_link,-0.03330430453227553,-0.0039091266283060875,-0.8070059989083739,0.5895904169459701,1.0,0.0,0.0,0.0,1.0,0.0,0.0,0.0,1.0,0.5857042074203491,-0.21718931198120117,-0.07606629282236096,1.2184696791468346e-07,0.0,0.0,0.0,1.2184696791468346e-07,0.0,0.0,0.0,1.2184696791468346e-07,-0.32361945000000003,-0.28439284999999875,10.2185293,8.999999999999999e-08,0.0,0.0,0.0,8.999999999999999e-08,0.0,0.0,0.0,8.999999999999999e-08
1737285479.7371256,12979,1737285479,733676224,base_link,-0.040477601482174656,-0.004772440151042087,-0.8069683710972131,0.5891865881382278,1.0,0.0,0.0,0.0,1.0,0.0,0.0,0.0,1.0,0.18774347007274628,-0.3311672508716583,-0.1457128822803497,1.2184696791468346e-07,0.0,0.0,0.0,1.2184696791468346e-07,0.0,0.0,0.0,1.2184696791468346e-07,-0.2941995,-0.21574629999999878,9.99297635,8.999999999999999e-08,0.0,0.0,0.0,8.999999999999999e-08,0.0,0.0,0.0,8.999999999999999e-08
1737285479.8433826,12980,1737285479,833676736,base_link,-0.046895181338985445,-0.010615145825151214,-0.8067702289344679,0.5889057295962745,1.0,0.0,0.0,0.0,1.0,0.0,0.0,0.0,1.0,0.4852374792098999,-0.3034055233001709,-0.08031993359327312,1.2184696791468346e-07,0.0,0.0,0.0,1.2184696791468346e-07,0.0,0.0,0.0,1.2184696791468346e-07,-0.20593965,-0.3236194499999988,9.73800345,8.999999999999999e-08,0.0,0.0,0.0,8.999999999999999e-08,0.0,0.0,0.0,8.999999999999999e-08
1737285479.938794,12981,1737285479,934678016,base_link,-0.050247947147666706,-0.015842831864345094,-0.808049245475461,0.5867542631907345,1.0,0.0,0.0,0.0,1.0,0.0,0.0,0.0,1.0,0.25337570905685425,-0.1088063642382622,-0.20954358577728271,1.2184696791468346e-07,0.0,0.0,0.0,1.2184696791468346e-07,0.0,0.0,0.0,1.2184696791468346e-07,-0.20593965,-0.2843928499999988,9.80665,8.999999999999999e-08,0.0,0.0,0.0,8.999999999999999e-08,0.0,0.0,0.0,8.999999999999999e-08
1737285480.041428,12982,1737285480,33678016,base_link,-0.052445518943186394,-0.016925745292381944,-0.8097685402199211,0.584155713794854,1.0,0.0,0.0,0.0,1.0,0.0,0.0,0.0,1.0,0.1964438557624817,-0.10337319970130922,-0.09937664121389388,1.2184696791468346e-07,0.0,0.0,0.0,1.2184696791468346e-07,0.0,0.0,0.0,1.2184696791468346e-07,-0.22555295,-0.20593964999999878,9.81645665,8.999999999999999e-08,0.0,0.0,0.0,8.999999999999999e-08,0.0,0.0,0.0,8.999999999999999e-08
1737285480.1372406,12983,1737285480,134677504,base_link,-0.04846947201262541,-0.018233088778378287,-0.8128788298240861,0.5801260835199891,1.0,0.0,0.0,0.0,1.0,0.0,0.0,0.0,1.0,0.011383031494915485,0.12015294283628462,-0.15486255288124087,1.2184696791468346e-07,0.0,0.0,0.0,1.2184696791468346e-07,0.0,0.0,0.0,1.2184696791468346e-07,-0.2941995,-0.4216859499999988,9.89490985,8.999999999999999e-08,0.0,0.0,0.0,8.999999999999999e-08,0.0,0.0,0.0,8.999999999999999e-08
1737285480.2370045,12984,1737285480,233679552,base_link,-0.0427779300627415,-0.01735534834922838,-0.8163782676135377,0.5756694926357859,1.0,0.0,0.0,0.0,1.0,0.0,0.0,0.0,1.0,0.006250876002013683,0.056562189012765864,-0.18215566873550415,1.2184696791468346e-07,0.0,0.0,0.0,1.2184696791468346e-07,0.0,0.0,0.0,1.2184696791468346e-07,-0.28439285000000003,-0.3236194499999988,9.9243298,8.999999999999999e-08,0.0,0.0,0.0,8.999999999999999e-08,0.0,0.0,0.0,8.999999999999999e-08
1737285480.3500047,12985,1737285480,333680576,base_link,-0.0405206095450134,-0.018504002363286975,-0.8202792849015399,0.570225899850277,1.0,0.0,0.0,0.0,1.0,0.0,0.0,0.0,1.0,0.012661494314670563,-0.21185465157032016,-0.3371826410293579,1.2184696791468346e-07,0.0,0.0,0.0,1.2184696791468346e-07,0.0,0.0,0.0,1.2184696791468346e-07,-0.3334261,-0.3922659999999987,9.9635564,8.999999999999999e-08,0.0,0.0,0.0,8.999999999999999e-08,0.0,0.0,0.0,8.999999999999999e-08
1737285480.4437878,12986,1737285480,434680576,base_link,-0.047404730487479875,-0.029719440728793765,-0.8220321556800929,0.566685698953235,1.0,0.0,0.0,0.0,1.0,0.0,0.0,0.0,1.0,0.589885413646698,-0.6352059841156006,-0.06238726153969757,1.2184696791468346e-07,0.0,0.0,0.0,1.2184696791468346e-07,0.0,0.0,0.0,1.2184696791468346e-07,-0.3530394,-0.24516624999999878,10.0223963,8.999999999999999e-08,0.0,0.0,0.0,8.999999999999999e-08,0.0,0.0,0.0,8.999999999999999e-08
1737285480.5380366,12987,1737285480,534680064,base_link,-0.0601273296794152,-0.03849736217418651,-0.8226622994992469,0.5640296076571369,1.0,0.0,0.0,0.0,1.0,0.0,0.0,0.0,1.0,-0.24549733102321625,-0.18076904118061063,0.11468169838190082,1.2184696791468346e-07,0.0,0.0,0.0,1.2184696791468346e-07,0.0,0.0,0.0,1.2184696791468346e-07,-0.2941995,-0.14709974999999875,10.28717585,8.999999999999999e-08,0.0,0.0,0.0,8.999999999999999e-08,0.0,0.0,0.0,8.999999999999999e-08
1737285480.637081,12988,1737285480,633681344,base_link,-0.06472888386325008,-0.04074142144925586,-0.8239173545887546,0.5615251561413617,1.0,0.0,0.0,0.0,1.0,0.0,0.0,0.0,1.0,0.34028297662734985,-0.06666240096092226,-0.11904896050691603,1.2184696791468346e-07,0.0,0.0,0.0,1.2184696791468346e-07,0.0,0.0,0.0,1.2184696791468346e-07,-0.00980665,-0.2843928499999987,10.6500219,8.999999999999999e-08,0.0,0.0,0.0,8.999999999999999e-08,0.0,0.0,0.0,8.999999999999999e-08
1737285480.7370772,12989,1737285480,733681088,base_link,-0.07031039292037022,-0.03996546459202252,-0.8230372601432474,0.562200034421222,1.0,0.0,0.0,0.0,1.0,0.0,0.0,0.0,1.0,0.25520724058151245,-0.3430301249027252,-0.03138998895883556,1.2184696791468346e-07,0.0,0.0,0.0,1.2184696791468346e-07,0.0,0.0,0.0,1.2184696791468346e-07,-0.0196133,-0.19613299999999867,10.87557485,8.999999999999999e-08,0.0,0.0,0.0,8.999999999999999e-08,0.0,0.0,0.0,8.999999999999999e-08
1737285480.838774,12990,1737285480,833682112,base_link,-0.07183565079845292,-0.040403129985482865,-0.819607843538238,0.5669657918890154,1.0,0.0,0.0,0.0,1.0,0.0,0.0,0.0,1.0,0.529289722442627,-0.20233036577701566,0.18577785789966586,1.2184696791468346e-07,0.0,0.0,0.0,1.2184696791468346e-07,0.0,0.0,0.0,1.2184696791468346e-07,-0.10787315,-0.23535959999999867,10.8461549,8.999999999999999e-08,0.0,0.0,0.0,8.999999999999999e-08,0.0,0.0,0.0,8.999999999999999e-08
1737285480.939076,12991,1737285480,933682112,base_link,-0.06853899498913373,-0.03995907764867894,-0.8124965397027155,0.5775422506193465,1.0,0.0,0.0,0.0,1.0,0.0,0.0,0.0,1.0,0.1203874945640564,0.06225216761231429,0.5061314702033997,1.2184696791468346e-07,0.0,0.0,0.0,1.2184696791468346e-07,0.0,0.0,0.0,1.2184696791468346e-07,0.20593965,-0.32361944999999875,10.50292215,8.999999999999999e-08,0.0,0.0,0.0,8.999999999999999e-08,0.0,0.0,0.0,8.999999999999999e-08
1737285481.0377924,12992,1737285481,33682880,base_link,-0.07708840971271695,-0.04867770036840226,-0.8054553890377902,0.5856018057048581,1.0,0.0,0.0,0.0,1.0,0.0,0.0,0.0,1.0,0.0018759844824671745,-0.2476016730070114,0.0772003307938576,1.2184696791468346e-07,0.0,0.0,0.0,1.2184696791468346e-07,0.0,0.0,0.0,1.2184696791468346e-07,-0.30400615,-0.5099457999999988,10.4342756,8.999999999999999e-08,0.0,0.0,0.0,8.999999999999999e-08,0.0,0.0,0.0,8.999999999999999e-08
1737285481.1390254,12993,1737285481,133682624,base_link,-0.07697667014278523,-0.04991211607539601,-0.7952842803665912,0.5992547758044139,1.0,0.0,0.0,0.0,1.0,0.0,0.0,0.0,1.0,0.3097705841064453,-0.033599667251110014,0.49647969007492065,1.2184696791468346e-07,0.0,0.0,0.0,1.2184696791468346e-07,0.0,0.0,0.0,1.2184696791468346e-07,0.1569064,-0.18632634999999875,10.1008495,8.999999999999999e-08,0.0,0.0,0.0,8.999999999999999e-08,0.0,0.0,0.0,8.999999999999999e-08
1737285481.2374341,12994,1737285481,233683392,base_link,-0.0624863527135996,-0.04145878253033622,-0.779645468133833,0.6217150224130266,1.0,0.0,0.0,0.0,1.0,0.0,0.0,0.0,1.0,0.22008192539215088,0.34790110588073736,0.5928252935409546,1.2184696791468346e-07,0.0,0.0,0.0,1.2184696791468346e-07,0.0,0.0,0.0,1.2184696791468346e-07,0.26477955,-0.3138127999999988,10.05181625,8.999999999999999e-08,0.0,0.0,0.0,8.999999999999999e-08,0.0,0.0,0.0,8.999999999999999e-08
1737285481.3370683,12995,1737285481,333683136,base_link,-0.05370078422588424,-0.035034748705980466,-0.7544759388331082,0.6531882193353872,1.0,0.0,0.0,0.0,1.0,0.0,0.0,0.0,1.0,0.017428748309612274,0.09180089086294188,1.077178955078125,1.2184696791468346e-07,0.0,0.0,0.0,1.2184696791468346e-07,0.0,0.0,0.0,1.2184696791468346e-07,0.0392266,-0.2745861999999988,9.87529655,8.999999999999999e-08,0.0,0.0,0.0,8.999999999999999e-08,0.0,0.0,0.0,8.999999999999999e-08
1737285481.4411817,12996,1737285481,433684160,base_link,-0.05899414202408104,-0.03151455948746359,-0.7190869233227769,0.6916939499904105,1.0,0.0,0.0,0.0,1.0,0.0,0.0,0.0,1.0,-0.1133783757686615,-0.1974111050367354,1.1780787706375122,1.2184696791468346e-07,0.0,0.0,0.0,1.2184696791468346e-07,0.0,0.0,0.0,1.2184696791468346e-07,-0.04903325,-0.13729309999999878,9.95374975,8.999999999999999e-08,0.0,0.0,0.0,8.999999999999999e-08,0.0,0.0,0.0,8.999999999999999e-08
1737285481.53838,12997,1737285481,534683904,base_link,0.06807803251956011,0.03207586160112445,0.6761236403825162,-0.7329347471001119,1.0,0.0,0.0,0.0,1.0,0.0,0.0,0.0,1.0,0.08880943804979324,-0.19160804152488695,1.0385735034942627,1.2184696791468346e-07,0.0,0.0,0.0,1.2184696791468346e-07,0.0,0.0,0.0,1.2184696791468346e-07,-0.00980665,-0.19613299999999878,9.85568325,8.999999999999999e-08,0.0,0.0,0.0,8.999999999999999e-08,0.0,0.0,0.0,8.999999999999999e-08
1737285481.6382575,12998,1737285481,633684928,base_link,0.07289115715645358,0.02221337028974437,0.6247327251764426,-0.7771116184193743,1.0,0.0,0.0,0.0,1.0,0.0,0.0,0.0,1.0,-0.22841957211494446,0.44733002781868003,1.825095772743225,1.2184696791468346e-07,0.0,0.0,0.0,1.2184696791468346e-07,0.0,0.0,0.0,1.2184696791468346e-07,0.1176798,-0.2353595999999988,9.69877685,8.999999999999999e-08,0.0,0.0,0.0,8.999999999999999e-08,0.0,0.0,0.0,8.999999999999999e-08
1737285481.7384865,12999,1737285481,733686208,base_link,0.06886245188375445,0.01122377504485408,0.5691733745168359,-0.8192518900407969,1.0,0.0,0.0,0.0,1.0,0.0,0.0,0.0,1.0,0.026178643107414246,0.14380985498428364,1.6166647672653198,1.2184696791468346e-07,0.0,0.0,0.0,1.2184696791468346e-07,0.0,0.0,0.0,1.2184696791468346e-07,0.32361945000000003,-0.43149259999999884,9.8262633,8.999999999999999e-08,0.0,0.0,0.0,8.999999999999999e-08,0.0,0.0,0.0,8.999999999999999e-08
1737285481.840858,13000,1737285481,833687232,base_link,0.06665942912556358,0.0020126577063659355,0.5074168078332113,-0.8591162045066807,1.0,0.0,0.0,0.0,1.0,0.0,0.0,0.0,1.0,-0.28424322605133057,0.022185450419783814,1.820143699645996,1.2184696791468346e-07,0.0,0.0,0.0,1.2184696791468346e-07,0.0,0.0,0.0,1.2184696791468346e-07,0.08825985,-0.4118792999999987,10.1400761,8.999999999999999e-08,0.0,0.0,0.0,8.999999999999999e-08,0.0,0.0,0.0,8.999999999999999e-08
1737285481.943066,13001,1737285481,933687232,base_link,0.06742857728996411,-0.0012125866584640692,0.4450330401042789,-0.8929711696431135,1.0,0.0,0.0,0.0,1.0,0.0,0.0,0.0,1.0,-0.17629040777683258,0.1078183576464655,1.593268871307373,1.2184696791468346e-07,0.0,0.0,0.0,1.2184696791468346e-07,0.0,0.0,0.0,1.2184696791468346e-07,-0.0196133,-0.38245934999999875,10.07142955,8.999999999999999e-08,0.0,0.0,0.0,8.999999999999999e-08,0.0,0.0,0.0,8.999999999999999e-08
1737285482.037234,13002,1737285482,33688512,base_link,0.06352329984196388,-0.008009421072590124,0.38289474280090263,-0.9215705374450187,1.0,0.0,0.0,0.0,1.0,0.0,0.0,0.0,1.0,0.13323237001895905,0.06713439524173749,1.0170286893844604,1.2184696791468346e-07,0.0,0.0,0.0,1.2184696791468346e-07,0.0,0.0,0.0,1.2184696791468346e-07,0.22555295,-0.49033249999999884,9.95374975,8.999999999999999e-08,0.0,0.0,0.0,8.999999999999999e-08,0.0,0.0,0.0,8.999999999999999e-08
1737285482.1377134,13003,1737285482,133688512,base_link,0.048634627205868544,-0.008065031210631854,0.3226836168385715,-0.9452221494083259,1.0,0.0,0.0,0.0,1.0,0.0,0.0,0.0,1.0,0.6567598581314087,-0.04704089462757094,1.3615632057189941,1.2184696791468346e-07,0.0,0.0,0.0,1.2184696791468346e-07,0.0,0.0,0.0,1.2184696791468346e-07,0.1372931,-0.5883989999999988,10.07142955,8.999999999999999e-08,0.0,0.0,0.0,8.999999999999999e-08,0.0,0.0,0.0,8.999999999999999e-08
1737285482.2399764,13004,1737285482,233688512,base_link,0.03590526103617775,-0.00795839991676521,0.26450858244989395,-0.9636818385292092,1.0,0.0,0.0,0.0,1.0,0.0,0.0,0.0,1.0,-0.0017670220695436,0.10925521701574341,1.2766560316085815,1.2184696791468346e-07,0.0,0.0,0.0,1.2184696791468346e-07,0.0,0.0,0.0,1.2184696791468346e-07,0.1569064,-0.5589790499999987,10.179302700000001,8.999999999999999e-08,0.0,0.0,0.0,8.999999999999999e-08,0.0,0.0,0.0,8.999999999999999e-08
1737285482.3407826,13005,1737285482,334688512,base_link,0.037654183205686254,-0.0018214860660616455,0.2129719462923917,-0.976330781430174,1.0,0.0,0.0,0.0,1.0,0.0,0.0,0.0,1.0,-0.04983527958393097,-0.3387714624404906,0.832594096660614,1.2184696791468346e-07,0.0,0.0,0.0,1.2184696791468346e-07,0.0,0.0,0.0,1.2184696791468346e-07,-0.1569064,-0.6178189499999988,10.07142955,8.999999999999999e-08,0.0,0.0,0.0,8.999999999999999e-08,0.0,0.0,0.0,8.999999999999999e-08
1737285482.4398274,13006,1737285482,433688256,base_link,0.05550418409322393,0.0034582342057530723,0.16007933135449864,-0.9855363686021029,1.0,0.0,0.0,0.0,1.0,0.0,0.0,0.0,1.0,-0.4719333350658417,-0.05513115599751458,1.1670713424682617,1.2184696791468346e-07,0.0,0.0,0.0,1.2184696791468346e-07,0.0,0.0,0.0,1.2184696791468346e-07,0.0,-0.2843928499999988,10.0420096,8.999999999999999e-08,0.0,0.0,0.0,8.999999999999999e-08,0.0,0.0,0.0,8.999999999999999e-08
1737285482.5369878,13007,1737285482,533688256,base_link,0.07570946179541277,-0.0026539175312594795,0.10981523418322459,-0.9910608702081167,1.0,0.0,0.0,0.0,1.0,0.0,0.0,0.0,1.0,-0.3077865242958069,0.13154727220535287,0.7857053279876709,1.2184696791468346e-07,0.0,0.0,0.0,1.2184696791468346e-07,0.0,0.0,0.0,1.2184696791468346e-07,0.1176798,-0.5883989999999988,9.93413645,8.999999999999999e-08,0.0,0.0,0.0,8.999999999999999e-08,0.0,0.0,0.0,8.999999999999999e-08
1737285482.6365807,13008,1737285482,633688000,base_link,0.07324630013906283,-0.006843588434692401,0.06063729649584576,-0.9954452587093625,1.0,0.0,0.0,0.0,1.0,0.0,0.0,0.0,1.0,0.27210795879364014,0.06356627494096766,0.8368520140647888,1.2184696791468346e-07,0.0,0.0,0.0,1.2184696791468346e-07,0.0,0.0,0.0,1.2184696791468346e-07,0.0784532,-1.0100849499999986,10.0616229,8.999999999999999e-08,0.0,0.0,0.0,8.999999999999999e-08,0.0,0.0,0.0,8.999999999999999e-08
1737285482.7389174,13009,1737285482,734687744,base_link,0.05331777981546187,-0.0042509942629266545,0.013782580913473674,-0.9984734267203561,1.0,0.0,0.0,0.0,1.0,0.0,0.0,0.0,1.0,0.8279982209205627,-0.27082467079162587,0.7272171974182129,1.2184696791468346e-07,0.0,0.0,0.0,1.2184696791468346e-07,0.0,0.0,0.0,1.2184696791468346e-07,0.0,-0.9022117999999988,10.2381426,8.999999999999999e-08,0.0,0.0,0.0,8.999999999999999e-08,0.0,0.0,0.0,8.999999999999999e-08
1737285482.8513467,13010,1737285482,834687488,base_link,0.030970457199197478,0.0031584381644847955,-0.03563394382904839,-0.9988799112488058,1.0,0.0,0.0,0.0,1.0,0.0,0.0,0.0,1.0,0.5926422476768494,-0.1547414809465407,1.1794203519821167,1.2184696791468346e-07,0.0,0.0,0.0,1.2184696791468346e-07,0.0,0.0,0.0,1.2184696791468346e-07,-0.1176798,-0.6570455499999988,10.28717585,8.999999999999999e-08,0.0,0.0,0.0,8.999999999999999e-08,0.0,0.0,0.0,8.999999999999999e-08
1737285482.936732,13011,1737285482,933688768,base_link,0.011572363529782206,0.012614332498685132,-0.0807243832280286,-0.9965894505614645,1.0,0.0,0.0,0.0,1.0,0.0,0.0,0.0,1.0,0.5440633296966553,-0.3264871537685393,0.7688053250312805,1.2184696791468346e-07,0.0,0.0,0.0,1.2184696791468346e-07,0.0,0.0,0.0,1.2184696791468346e-07,-0.0980665,-0.7354987499999988,10.1008495,8.999999999999999e-08,0.0,0.0,0.0,8.999999999999999e-08,0.0,0.0,0.0,8.999999999999999e-08
1737285483.0365305,13012,1737285483,33688768,base_link,0.002025304640202287,0.018854757178103608,-0.1307764530427704,-0.9912305057868331,1.0,0.0,0.0,0.0,1.0,0.0,0.0,0.0,1.0,0.1031036227941513,-0.15780842304229725,0.9405529499053955,1.2184696791468346e-07,0.0,0.0,0.0,1.2184696791468346e-07,0.0,0.0,0.0,1.2184696791468346e-07,0.0392266,-0.4020726499999988,9.9439431,8.999999999999999e-08,0.0,0.0,0.0,8.999999999999999e-08,0.0,0.0,0.0,8.999999999999999e-08
1737285483.1374967,13013,1737285483,133688768,base_link,-0.006493206761670595,0.02503371781211827,-0.17898104682367966,-0.9835125500553377,1.0,0.0,0.0,0.0,1.0,0.0,0.0,0.0,1.0,-0.2995280921459198,0.13222384452819838,1.1766608953475952,1.2184696791468346e-07,0.0,0.0,0.0,1.2184696791468346e-07,0.0,0.0,0.0,1.2184696791468346e-07,-0.2157463,-0.6374322499999987,9.85568325,8.999999999999999e-08,0.0,0.0,0.0,8.999999999999999e-08,0.0,0.0,0.0,8.999999999999999e-08
1737285483.2376206,13014,1737285483,233688768,base_link,-0.01233715916528939,0.030667189437106376,-0.22627073889964983,-0.973503400463278,1.0,0.0,0.0,0.0,1.0,0.0,0.0,0.0,1.0,0.3687898814678192,-0.3118508458137511,0.9456003904342651,1.2184696791468346e-07,0.0,0.0,0.0,1.2184696791468346e-07,0.0,0.0,0.0,1.2184696791468346e-07,-0.0784532,-0.6668521999999988,9.91452315,8.999999999999999e-08,0.0,0.0,0.0,8.999999999999999e-08,0.0,0.0,0.0,8.999999999999999e-08
1737285483.3375719,13015,1737285483,333689024,base_link,-0.011333337682578052,0.034374302719740985,-0.2749929407971876,-0.9607647190031587,1.0,0.0,0.0,0.0,1.0,0.0,0.0,0.0,1.0,0.31746459007263184,-0.1571992337703704,0.7695757150650024,1.2184696791468346e-07,0.0,0.0,0.0,1.2184696791468346e-07,0.0,0.0,0.0,1.2184696791468346e-07,-0.0588399,-0.4412992499999988,9.9439431,8.999999999999999e-08,0.0,0.0,0.0,8.999999999999999e-08,0.0,0.0,0.0,8.999999999999999e-08
1737285483.4367995,13016,1737285483,433689024,base_link,-0.011057713788119697,0.03844482121511166,-0.3263380379055518,-0.9444062725879538,1.0,0.0,0.0,0.0,1.0,0.0,0.0,0.0,1.0,-0.11485117673873901,0.07743826508522046,1.054938554763794,1.2184696791468346e-07,0.0,0.0,0.0,1.2184696791468346e-07,0.0,0.0,0.0,1.2184696791468346e-07,-0.1372931,-0.5197524499999988,9.85568325,8.999999999999999e-08,0.0,0.0,0.0,8.999999999999999e-08,0.0,0.0,0.0,8.999999999999999e-08
1737285483.5379837,13017,1737285483,533689280,base_link,-0.015492140285243558,0.043804846432219643,-0.3756828586553397,-0.9255827995003927,1.0,0.0,0.0,0.0,1.0,0.0,0.0,0.0,1.0,0.2474597543478012,-0.11564055085182175,1.238132119178772,1.2184696791468346e-07,0.0,0.0,0.0,1.2184696791468346e-07,0.0,0.0,0.0,1.2184696791468346e-07,-0.20593965,-0.6962721499999988,9.7870367,8.999999999999999e-08,0.0,0.0,0.0,8.999999999999999e-08,0.0,0.0,0.0,8.999999999999999e-08
1737285483.6384254,13018,1737285483,633689280,base_link,-0.016323373887348176,0.046721351904883884,-0.42357912835017264,-0.9045061551848178,1.0,0.0,0.0,0.0,1.0,0.0,0.0,0.0,1.0,0.32397404313087463,-0.10642001032829272,1.0405607223510742,1.2184696791468346e-07,0.0,0.0,0.0,1.2184696791468346e-07,0.0,0.0,0.0,1.2184696791468346e-07,-0.1765197,-0.5491723999999988,9.9047165,8.999999999999999e-08,0.0,0.0,0.0,8.999999999999999e-08,0.0,0.0,0.0,8.999999999999999e-08
1737285483.7385664,13019,1737285483,733690304,base_link,-0.011016176059928148,0.049634978940412564,-0.4725807545899657,-0.8798195514546037,1.0,0.0,0.0,0.0,1.0,0.0,0.0,0.0,1.0,-0.01225697435438633,0.009621816687286015,0.9386160969734192,1.2184696791468346e-07,0.0,0.0,0.0,1.2184696791468346e-07,0.0,0.0,0.0,1.2184696791468346e-07,-0.0784532,-0.3236194499999988,9.91452315,8.999999999999999e-08,0.0,0.0,0.0,8.999999999999999e-08,0.0,0.0,0.0,8.999999999999999e-08
1737285483.8419952,13020,1737285483,833690304,base_link,-0.0103448782866894,0.05124087634064563,-0.5200384370059226,-0.8525417175256078,1.0,0.0,0.0,0.0,1.0,0.0,0.0,0.0,1.0,-0.17742738127708435,0.08927646279335039,1.3445826768875122,1.2184696791468346e-07,0.0,0.0,0.0,1.2184696791468346e-07,0.0,0.0,0.0,1.2184696791468346e-07,-0.2353596,-0.5393657499999989,9.87529655,8.999999999999999e-08,0.0,0.0,0.0,8.999999999999999e-08,0.0,0.0,0.0,8.999999999999999e-08
1737285483.93964,13021,1737285483,933690816,base_link,-0.0038749364981469454,0.05413738699945405,-0.5648463223408714,-0.8234092301729432,1.0,0.0,0.0,0.0,1.0,0.0,0.0,0.0,1.0,-0.03224700689315796,-0.09226238727569569,0.8649343252182007,1.2184696791468346e-07,0.0,0.0,0.0,1.2184696791468346e-07,0.0,0.0,0.0,1.2184696791468346e-07,-0.196133,-0.46091254999999876,9.9831697,8.999999999999999e-08,0.0,0.0,0.0,8.999999999999999e-08,0.0,0.0,0.0,8.999999999999999e-08
1737285484.0365949,13022,1737285484,33691072,base_link,-0.002110923226841063,0.05504879555883758,-0.6035702723155926,-0.7954043628793679,1.0,0.0,0.0,0.0,1.0,0.0,0.0,0.0,1.0,0.306061714887619,-0.2773500084877013,0.8116444945335388,1.2184696791468346e-07,0.0,0.0,0.0,1.2184696791468346e-07,0.0,0.0,0.0,1.2184696791468346e-07,-0.1765197,-0.4609125499999988,9.85568325,8.999999999999999e-08,0.0,0.0,0.0,8.999999999999999e-08,0.0,0.0,0.0,8.999999999999999e-08
1737285484.1367316,13023,1737285484,133691584,base_link,0.0005013475111882278,0.054161557495556664,-0.6329548500041947,-0.7722916755970477,1.0,0.0,0.0,0.0,1.0,0.0,0.0,0.0,1.0,0.1335229128599167,-0.07771730422973626,0.6132641434669495,1.2184696791468346e-07,0.0,0.0,0.0,1.2184696791468346e-07,0.0,0.0,0.0,1.2184696791468346e-07,-0.10787315,-0.3726526999999987,10.14988275,8.999999999999999e-08,0.0,0.0,0.0,8.999999999999999e-08,0.0,0.0,0.0,8.999999999999999e-08
1737285484.236576,13024,1737285484,233691840,base_link,-0.0007716165932979224,0.05070159013293943,-0.6510952312262904,-0.7573003058498047,1.0,0.0,0.0,0.0,1.0,0.0,0.0,0.0,1.0,0.37362346053123474,-0.059360627084970446,0.2194429337978363,1.2184696791468346e-07,0.0,0.0,0.0,1.2184696791468346e-07,0.0,0.0,0.0,1.2184696791468346e-07,-0.1176798,-0.34323274999999875,10.1204628,8.999999999999999e-08,0.0,0.0,0.0,8.999999999999999e-08,0.0,0.0,0.0,8.999999999999999e-08
1737285484.3364956,13025,1737285484,333692096,base_link,-0.0026087849927815005,0.047328448779282044,-0.6591108862989782,-0.750550499126597,1.0,0.0,0.0,0.0,1.0,0.0,0.0,0.0,1.0,0.24552422761917114,0.12565399706363678,0.041046097874641405,1.2184696791468346e-07,0.0,0.0,0.0,1.2184696791468346e-07,0.0,0.0,0.0,1.2184696791468346e-07,-0.1765197,-0.40207264999999875,10.1596894,8.999999999999999e-08,0.0,0.0,0.0,8.999999999999999e-08,0.0,0.0,0.0,8.999999999999999e-08
1737285484.4370105,13026,1737285484,433692352,base_link,-0.0019224571450789081,0.04343767996108879,-0.6591717982151497,-0.7507343155577274,1.0,0.0,0.0,0.0,1.0,0.0,0.0,0.0,1.0,-0.007115004118531942,0.1784294992685318,-0.0015711006708443384,1.2184696791468346e-07,0.0,0.0,0.0,1.2184696791468346e-07,0.0,0.0,0.0,1.2184696791468346e-07,-0.1372931,-0.3628460499999988,9.9243298,8.999999999999999e-08,0.0,0.0,0.0,8.999999999999999e-08,0.0,0.0,0.0,8.999999999999999e-08
1737285484.5422957,13027,1737285484,533692864,base_link,-0.004425555779325762,0.03520023299413984,-0.6540717460696917,-0.7556000986279364,1.0,0.0,0.0,0.0,1.0,0.0,0.0,0.0,1.0,0.7895855903625488,0.11943098902702329,-0.2338642776012421,1.2184696791468346e-07,0.0,0.0,0.0,1.2184696791468346e-07,0.0,0.0,0.0,1.2184696791468346e-07,-0.16671305,-0.4805258499999988,9.8654899,8.999999999999999e-08,0.0,0.0,0.0,8.999999999999999e-08,0.0,0.0,0.0,8.999999999999999e-08
1737285484.6421123,13028,1737285484,634693120,base_link,-0.0008029482592663477,0.022728198075150356,-0.6444318020823712,-0.7643235157648998,1.0,0.0,0.0,0.0,1.0,0.0,0.0,0.0,1.0,-0.10092412680387497,0.3285873830318451,-0.1445591449737549,1.2184696791468346e-07,0.0,0.0,0.0,1.2184696791468346e-07,0.0,0.0,0.0,1.2184696791468346e-07,0.0,-0.48052584999999876,10.002783,8.999999999999999e-08,0.0,0.0,0.0,8.999999999999999e-08,0.0,0.0,0.0,8.999999999999999e-08
1737285484.7379334,13029,1737285484,734698752,base_link,0.003449939950807269,0.007970693806010693,-0.6295069323113647,-0.7769463225516429,1.0,0.0,0.0,0.0,1.0,0.0,0.0,0.0,1.0,0.3350142240524292,0.1765743196010589,-0.4031732678413391,1.2184696791468346e-07,0.0,0.0,0.0,1.2184696791468346e-07,0.0,0.0,0.0,1.2184696791468346e-07,-0.0392266,-0.42168594999999875,10.24794925,8.999999999999999e-08,0.0,0.0,0.0,8.999999999999999e-08,0.0,0.0,0.0,8.999999999999999e-08
1737285484.83764,13030,1737285484,834701824,base_link,0.008587435218719358,-0.0002690487320273466,-0.6120185210032999,-0.7907967586669011,1.0,0.0,0.0,0.0,1.0,0.0,0.0,0.0,1.0,-0.4533303678035736,0.19896072149276728,-0.45391565561294556,1.2184696791468346e-07,0.0,0.0,0.0,1.2184696791468346e-07,0.0,0.0,0.0,1.2184696791468346e-07,-0.16671305,-0.3138127999999987,10.4931155,8.999999999999999e-08,0.0,0.0,0.0,8.999999999999999e-08,0.0,0.0,0.0,8.999999999999999e-08
1737285484.9408057,13031,1737285484,934701824,base_link,0.014297368858021223,-0.01621448647292635,-0.5936062460806025,-0.8044652262753513,1.0,0.0,0.0,0.0,1.0,0.0,0.0,0.0,1.0,0.053809959441423416,0.48167940974235535,-0.21243020892143255,1.2184696791468346e-07,0.0,0.0,0.0,1.2184696791468346e-07,0.0,0.0,0.0,1.2184696791468346e-07,-0.0392266,-0.44129924999999876,10.267562550000001,8.999999999999999e-08,0.0,0.0,0.0,8.999999999999999e-08,0.0,0.0,0.0,8.999999999999999e-08
1737285485.0376966,13032,1737285485,34701824,base_link,0.031590072852147634,-0.037225460842172015,-0.5755282355248633,-0.8163232095658688,1.0,0.0,0.0,0.0,1.0,0.0,0.0,0.0,1.0,0.2957799434661865,0.6469399929046631,-0.4020012021064759,1.2184696791468346e-07,0.0,0.0,0.0,1.2184696791468346e-07,0.0,0.0,0.0,1.2184696791468346e-07,-0.00980665,-0.46091254999999876,10.2185293,8.999999999999999e-08,0.0,0.0,0.0,8.999999999999999e-08,0.0,0.0,0.0,8.999999999999999e-08
1737285485.1368992,13033,1737285485,134701824,base_link,0.04858132045111293,-0.06146201816351106,-0.5619742785511957,-0.8234362063167722,1.0,0.0,0.0,0.0,1.0,0.0,0.0,0.0,1.0,0.03824573755264282,0.7544633150100708,0.007572387345135119,1.2184696791468346e-07,0.0,0.0,0.0,1.2184696791468346e-07,0.0,0.0,0.0,1.2184696791468346e-07,0.04903325,-0.5099457999999988,10.40485565,8.999999999999999e-08,0.0,0.0,0.0,8.999999999999999e-08,0.0,0.0,0.0,8.999999999999999e-08
1737285485.2381198,13034,1737285485,234701824,base_link,0.07099689603577787,-0.08321997225392258,-0.5513537386553813,-0.8270688797446527,1.0,0.0,0.0,0.0,1.0,0.0,0.0,0.0,1.0,-0.4997369945049286,0.5146130323410034,-0.35994109511375433,1.2184696791468346e-07,0.0,0.0,0.0,1.2184696791468346e-07,0.0,0.0,0.0,1.2184696791468346e-07,0.0,-0.4805258499999987,10.54214875,8.999999999999999e-08,0.0,0.0,0.0,8.999999999999999e-08,0.0,0.0,0.0,8.999999999999999e-08
1737285485.336576,13035,1737285485,333701824,base_link,0.08132173580964812,-0.10319510512717026,-0.54407370688213,-0.8286865191628475,1.0,0.0,0.0,0.0,1.0,0.0,0.0,0.0,1.0,0.21852707862854004,0.29359811544418335,-0.10086151957511906,1.2184696791468346e-07,0.0,0.0,0.0,1.2184696791468346e-07,0.0,0.0,0.0,1.2184696791468346e-07,-0.24516625,-0.5491723999999988,10.2381426,8.999999999999999e-08,0.0,0.0,0.0,8.999999999999999e-08,0.0,0.0,0.0,8.999999999999999e-08
1737285485.4367054,13036,1737285485,433706432,base_link,0.09230629772590875,-0.10642689075585704,-0.5440775148551169,-0.8271230393074882,1.0,0.0,0.0,0.0,1.0,0.0,0.0,0.0,1.0,-0.2943286597728729,0.051075611263513565,0.00025191297754644724,1.2184696791468346e-07,0.0,0.0,0.0,1.2184696791468346e-07,0.0,0.0,0.0,1.2184696791468346e-07,-0.1569064,-0.2745861999999987,10.44408225,8.999999999999999e-08,0.0,0.0,0.0,8.999999999999999e-08,0.0,0.0,0.0,8.999999999999999e-08
1737285485.5378797,13037,1737285485,534711552,base_link,0.08944300859815402,-0.10076613041814596,-0.5449933588431478,-0.8275435783028757,1.0,0.0,0.0,0.0,1.0,0.0,0.0,0.0,1.0,0.10253272205591202,-0.3469112515449524,0.2249350100755692,1.2184696791468346e-07,0.0,0.0,0.0,1.2184696791468346e-07,0.0,0.0,0.0,1.2184696791468346e-07,-0.392266,-0.5589790499999987,10.24794925,8.999999999999999e-08,0.0,0.0,0.0,8.999999999999999e-08,0.0,0.0,0.0,8.999999999999999e-08
1737285485.6379433,13038,1737285485,634711552,base_link,0.09040401846877955,-0.09213447273259702,-0.5503636168095607,-0.8248868053686407,1.0,0.0,0.0,0.0,1.0,0.0,0.0,0.0,1.0,-0.3246293067932129,-0.1292065232992172,0.17080709338188174,1.2184696791468346e-07,0.0,0.0,0.0,1.2184696791468346e-07,0.0,0.0,0.0,1.2184696791468346e-07,-0.18632635,-0.3530393999999987,10.3754357,8.999999999999999e-08,0.0,0.0,0.0,8.999999999999999e-08,0.0,0.0,0.0,8.999999999999999e-08
1737285485.7379453,13039,1737285485,734714624,base_link,0.08348679045603435,-0.08310312528241932,-0.5542703933477923,-0.8239588323731522,1.0,0.0,0.0,0.0,1.0,0.0,0.0,0.0,1.0,-0.04058054834604263,-0.21541182696819305,-0.10076942294836042,1.2184696791468346e-07,0.0,0.0,0.0,1.2184696791468346e-07,0.0,0.0,0.0,1.2184696791468346e-07,-0.3726527,-0.6178189499999988,10.267562550000001,8.999999999999999e-08,0.0,0.0,0.0,8.999999999999999e-08,0.0,0.0,0.0,8.999999999999999e-08
1737285485.8376465,13040,1737285485,833714624,base_link,0.07195856969341484,-0.06792275446485821,-0.5586453368273786,-0.823482757144683,1.0,0.0,0.0,0.0,1.0,0.0,0.0,0.0,1.0,0.1577935516834259,-0.48470640182495117,-0.07153800874948496,1.2184696791468346e-07,0.0,0.0,0.0,1.2184696791468346e-07,0.0,0.0,0.0,1.2184696791468346e-07,-0.50013915,-0.5687856999999987,10.2381426,8.999999999999999e-08,0.0,0.0,0.0,8.999999999999999e-08,0.0,0.0,0.0,8.999999999999999e-08
1737285485.9387925,13041,1737285485,933713600,base_link,0.05877587830732734,-0.05025245717622228,-0.5632690687147683,-0.8226469734376659,1.0,0.0,0.0,0.0,1.0,0.0,0.0,0.0,1.0,0.2580517828464508,-0.7003850936889648,-0.04832385107874862,1.2184696791468346e-07,0.0,0.0,0.0,1.2184696791468346e-07,0.0,0.0,0.0,1.2184696791468346e-07,-0.38245935,-0.34323274999999875,10.36562905,8.999999999999999e-08,0.0,0.0,0.0,8.999999999999999e-08,0.0,0.0,0.0,8.999999999999999e-08
1737285486.0380535,13042,1737285486,34713856,base_link,0.045991924984818015,-0.03462745604509933,-0.5674575117548021,-0.8213876395935626,1.0,0.0,0.0,0.0,1.0,0.0,0.0,0.0,1.0,0.5131562948226929,-0.557684600353241,-0.08835072815418236,1.2184696791468346e-07,0.0,0.0,0.0,1.2184696791468346e-07,0.0,0.0,0.0,1.2184696791468346e-07,-0.32361945000000003,-0.4118792999999987,10.18910935,8.999999999999999e-08,0.0,0.0,0.0,8.999999999999999e-08,0.0,0.0,0.0,8.999999999999999e-08
1737285486.1409311,13043,1737285486,133713088,base_link,0.035070600593543014,-0.019891244230891378,-0.5713340136550789,-0.8197266838512293,1.0,0.0,0.0,0.0,1.0,0.0,0.0,0.0,1.0,0.48729291558265686,-0.4104755222797394,-0.07337579876184458,1.2184696791468346e-07,0.0,0.0,0.0,1.2184696791468346e-07,0.0,0.0,0.0,1.2184696791468346e-07,-0.3334261,-0.3138127999999988,10.07142955,8.999999999999999e-08,0.0,0.0,0.0,8.999999999999999e-08,0.0,0.0,0.0,8.999999999999999e-08
1737285486.2380056,13044,1737285486,233713344,base_link,0.026579446265052903,-0.005567805230648937,-0.5752902565717191,-0.8174984117873271,1.0,0.0,0.0,0.0,1.0,0.0,0.0,0.0,1.0,0.32835301756858826,-0.37606081366539,-0.07600589841604229,1.2184696791468346e-07,0.0,0.0,0.0,1.2184696791468346e-07,0.0,0.0,0.0,1.2184696791468346e-07,-0.3138128,-0.24516624999999878,10.01258965,8.999999999999999e-08,0.0,0.0,0.0,8.999999999999999e-08,0.0,0.0,0.0,8.999999999999999e-08
1737285486.3375318,13045,1737285486,333712320,base_link,0.01732893796770861,0.006732578903193998,-0.5786228064891774,-0.8153833626588242,1.0,0.0,0.0,0.0,1.0,0.0,0.0,0.0,1.0,0.4251185357570648,-0.5134915709495544,-0.0247439164668321,1.2184696791468346e-07,0.0,0.0,0.0,1.2184696791468346e-07,0.0,0.0,0.0,1.2184696791468346e-07,-0.3530394,-0.4314925999999987,10.0223963,8.999999999999999e-08,0.0,0.0,0.0,8.999999999999999e-08,0.0,0.0,0.0,8.999999999999999e-08
1737285486.4368765,13046,1737285486,433712576,base_link,0.007428130006984785,0.014832160019138165,-0.5808200030310295,-0.8138629823212266,1.0,0.0,0.0,0.0,1.0,0.0,0.0,0.0,1.0,0.43760207295417786,-0.2841428518295288,-0.12484477460384365,1.2184696791468346e-07,0.0,0.0,0.0,1.2184696791468346e-07,0.0,0.0,0.0,1.2184696791468346e-07,-0.36284605000000003,-0.38245934999999875,10.0223963,8.999999999999999e-08,0.0,0.0,0.0,8.999999999999999e-08,0.0,0.0,0.0,8.999999999999999e-08
1737285486.5368736,13047,1737285486,533711552,base_link,0.004245776361930354,0.024658284406072185,-0.5835537488323785,-0.8116889580479157,1.0,0.0,0.0,0.0,1.0,0.0,0.0,0.0,1.0,0.06642983108758926,-0.38732659816741943,-0.12886381149291987,1.2184696791468346e-07,0.0,0.0,0.0,1.2184696791468346e-07,0.0,0.0,0.0,1.2184696791468346e-07,-0.36284605000000003,-0.20593964999999878,9.91452315,8.999999999999999e-08,0.0,0.0,0.0,8.999999999999999e-08,0.0,0.0,0.0,8.999999999999999e-08
1737285486.6367795,13048,1737285486,633711552,base_link,0.001146834926968714,0.029587706150637348,-0.585660130479959,-0.8100157183540275,1.0,0.0,0.0,0.0,1.0,0.0,0.0,0.0,1.0,0.177507683634758,-0.2303910106420517,-0.10619319975376126,1.2184696791468346e-07,0.0,0.0,0.0,1.2184696791468346e-07,0.0,0.0,0.0,1.2184696791468346e-07,-0.38245935,-0.39226599999999884,9.91452315,8.999999999999999e-08,0.0,0.0,0.0,8.999999999999999e-08,0.0,0.0,0.0,8.999999999999999e-08
1737285486.7379014,13049,1737285486,733710784,base_link,-0.004631972287103926,0.025091458727575615,-0.588276809487262,-0.808256988185776,1.0,0.0,0.0,0.0,1.0,0.0,0.0,0.0,1.0,0.0163097120821476,-0.028841033577919003,0.022897189483046535,1.2184696791468346e-07,0.0,0.0,0.0,1.2184696791468346e-07,0.0,0.0,0.0,1.2184696791468346e-07,-0.30400615,-0.2745861999999988,9.87529655,8.999999999999999e-08,0.0,0.0,0.0,8.999999999999999e-08,0.0,0.0,0.0,8.999999999999999e-08
1737285486.843943,13050,1737285486,833711296,base_link,-0.023281336393256455,0.005741576270971153,-0.5869539783292439,-0.8092651240484432,1.0,0.0,0.0,0.0,1.0,0.0,0.0,0.0,1.0,0.43588340282440186,0.24273645877838135,-0.037138618528842954,1.2184696791468346e-07,0.0,0.0,0.0,1.2184696791468346e-07,0.0,0.0,0.0,1.2184696791468346e-07,-0.42168595,-0.7551120499999989,9.551677100000001,8.999999999999999e-08,0.0,0.0,0.0,8.999999999999999e-08,0.0,0.0,0.0,8.999999999999999e-08
1737285486.9381146,13051,1737285486,933711808,base_link,-0.052276482903910654,-0.016728207086479915,-0.5778540928418249,-0.8142923208583148,1.0,0.0,0.0,0.0,1.0,0.0,0.0,0.0,1.0,1.121053695678711,0.014102287590503651,-0.3420373797416687,1.2184696791468346e-07,0.0,0.0,0.0,1.2184696791468346e-07,0.0,0.0,0.0,1.2184696791468346e-07,-0.4511059,-0.5883989999999988,9.44380395,8.999999999999999e-08,0.0,0.0,0.0,8.999999999999999e-08,0.0,0.0,0.0,8.999999999999999e-08
1737285487.038417,13052,1737285487,33712320,base_link,-0.07934869396926046,-0.03176906295475776,-0.5589042641688072,-0.8248154550554163,1.0,0.0,0.0,0.0,1.0,0.0,0.0,0.0,1.0,0.45307600498199463,-0.20233541727066046,-0.539477527141571,1.2184696791468346e-07,0.0,0.0,0.0,1.2184696791468346e-07,0.0,0.0,0.0,1.2184696791468346e-07,-0.42168595,-0.2157462999999988,9.639936950000001,8.999999999999999e-08,0.0,0.0,0.0,8.999999999999999e-08,0.0,0.0,0.0,8.999999999999999e-08
1737285487.1373534,13053,1737285487,133712832,base_link,-0.0903389409071002,-0.027782959224062254,-0.5302801039773548,-0.8425378295710546,1.0,0.0,0.0,0.0,1.0,0.0,0.0,0.0,1.0,-0.34393706917762756,-0.21237775683403023,-0.7267561554908752,1.2184696791468346e-07,0.0,0.0,0.0,1.2184696791468346e-07,0.0,0.0,0.0,1.2184696791468346e-07,-0.57859235,-0.04903324999999877,10.05181625,8.999999999999999e-08,0.0,0.0,0.0,8.999999999999999e-08,0.0,0.0,0.0,8.999999999999999e-08
1737285487.2370393,13054,1737285487,233713600,base_link,-0.08056108926115678,-0.014995195819832432,-0.49526297138472325,-0.8648697267071819,1.0,0.0,0.0,0.0,1.0,0.0,0.0,0.0,1.0,-0.4574173390865326,0.029603438451886073,-0.8439825773239136,1.2184696791468346e-07,0.0,0.0,0.0,1.2184696791468346e-07,0.0,0.0,0.0,1.2184696791468346e-07,-0.392266,1.2189827770851268e-15,9.95374975,8.999999999999999e-08,0.0,0.0,0.0,8.999999999999999e-08,0.0,0.0,0.0,8.999999999999999e-08
1737285487.3371978,13055,1737285487,333714112,base_link,-0.058395472754137326,0.00045535588388645487,-0.4569571919829458,-0.8875696514121588,1.0,0.0,0.0,0.0,1.0,0.0,0.0,0.0,1.0,-0.47383227944374084,-0.12645873427391063,-0.914333164691925,1.2184696791468346e-07,0.0,0.0,0.0,1.2184696791468346e-07,0.0,0.0,0.0,1.2184696791468346e-07,-0.3138128,-0.1274864499999988,9.8458766,8.999999999999999e-08,0.0,0.0,0.0,8.999999999999999e-08,0.0,0.0,0.0,8.999999999999999e-08
1737285487.437256,13056,1737285487,433714624,base_link,-0.04370785703501949,0.012825195093809357,-0.4157572812282627,-0.9083342010019744,1.0,0.0,0.0,0.0,1.0,0.0,0.0,0.0,1.0,-0.17014196515083313,-0.07755050808191312,-0.9789458513259888,1.2184696791468346e-07,0.0,0.0,0.0,1.2184696791468346e-07,0.0,0.0,0.0,1.2184696791468346e-07,-0.4511059,-0.49033249999999884,9.9047165,8.999999999999999e-08,0.0,0.0,0.0,8.999999999999999e-08,0.0,0.0,0.0,8.999999999999999e-08
1737285487.5375528,13057,1737285487,533715392,base_link,-0.034918227130791776,0.021441598073836825,-0.37498477303315336,-0.9261249350273195,1.0,0.0,0.0,0.0,1.0,0.0,0.0,0.0,1.0,-0.28434324264526367,-0.16324569284915935,-0.9561136960983276,1.2184696791468346e-07,0.0,0.0,0.0,1.2184696791468346e-07,0.0,0.0,0.0,1.2184696791468346e-07,-0.2745862,-0.4707191999999987,10.1400761,8.999999999999999e-08,0.0,0.0,0.0,8.999999999999999e-08,0.0,0.0,0.0,8.999999999999999e-08
1737285487.6384902,13058,1737285487,633716160,base_link,-0.03211904584534976,0.028710908295067335,-0.3372704344263206,-0.9404215569098455,1.0,0.0,0.0,0.0,1.0,0.0,0.0,0.0,1.0,-0.4671492278575897,-0.01731364056468018,-0.6439957618713379,1.2184696791468346e-07,0.0,0.0,0.0,1.2184696791468346e-07,0.0,0.0,0.0,1.2184696791468346e-07,-0.42168595,-0.5295590999999987,10.01258965,8.999999999999999e-08,0.0,0.0,0.0,8.999999999999999e-08,0.0,0.0,0.0,8.999999999999999e-08
1737285487.7371905,13059,1737285487,733715904,base_link,-0.03467128955041228,0.03363389976320945,-0.3026476910568621,-0.9518776379165443,1.0,0.0,0.0,0.0,1.0,0.0,0.0,0.0,1.0,-0.424601674079895,0.17077995836734763,-0.6057959198951721,1.2184696791468346e-07,0.0,0.0,0.0,1.2184696791468346e-07,0.0,0.0,0.0,1.2184696791468346e-07,-0.4118793,-0.6080122999999987,10.03220295,8.999999999999999e-08,0.0,0.0,0.0,8.999999999999999e-08,0.0,0.0,0.0,8.999999999999999e-08
1737285487.8374717,13060,1737285487,833716672,base_link,-0.033817831700465394,0.04074558971126077,-0.2720323763072493,-0.9608301293250496,1.0,0.0,0.0,0.0,1.0,0.0,0.0,0.0,1.0,-0.38572433590888977,-0.07429145276546488,-0.7374449372291565,1.2184696791468346e-07,0.0,0.0,0.0,1.2184696791468346e-07,0.0,0.0,0.0,1.2184696791468346e-07,-0.28439285000000003,-0.5589790499999987,10.0616229,8.999999999999999e-08,0.0,0.0,0.0,8.999999999999999e-08,0.0,0.0,0.0,8.999999999999999e-08
1737285487.9371972,13061,1737285487,933716160,base_link,-0.03301169950785453,0.047675274068872446,-0.24754145087922375,-0.9671403858978644,1.0,0.0,0.0,0.0,1.0,0.0,0.0,0.0,1.0,0.452869176864624,-0.3766066431999207,-0.6300746202468872,1.2184696791468346e-07,0.0,0.0,0.0,1.2184696791468346e-07,0.0,0.0,0.0,1.2184696791468346e-07,-0.26477955,-0.3726526999999987,10.0812362,8.999999999999999e-08,0.0,0.0,0.0,8.999999999999999e-08,0.0,0.0,0.0,8.999999999999999e-08
1737285488.037219,13062,1737285488,33716928,base_link,-0.026898517384108728,0.05051755870419111,-0.23203373998412485,-0.9710225484169175,1.0,0.0,0.0,0.0,1.0,0.0,0.0,0.0,1.0,-0.026375137269496918,-0.16092185676097873,-0.1446345746517181,1.2184696791468346e-07,0.0,0.0,0.0,1.2184696791468346e-07,0.0,0.0,0.0,1.2184696791468346e-07,-0.16671305,-0.2941994999999987,10.32640245,8.999999999999999e-08,0.0,0.0,0.0,8.999999999999999e-08,0.0,0.0,0.0,8.999999999999999e-08
1737285488.1417143,13063,1737285488,133717952,base_link,-0.019957844032465134,0.05218679522113111,-0.21947092833323756,-0.9740178306800502,1.0,0.0,0.0,0.0,1.0,0.0,0.0,0.0,1.0,-0.16811096668243408,-0.10306563228368763,-0.38953351974487305,1.2184696791468346e-07,0.0,0.0,0.0,1.2184696791468346e-07,0.0,0.0,0.0,1.2184696791468346e-07,-0.1569064,-0.40207264999999875,10.28717585,8.999999999999999e-08,0.0,0.0,0.0,8.999999999999999e-08,0.0,0.0,0.0,8.999999999999999e-08
1737285488.237586,13064,1737285488,233718720,base_link,-0.018371189091774584,0.0540526665562084,-0.21092200250344345,-0.9758343699160504,1.0,0.0,0.0,0.0,1.0,0.0,0.0,0.0,1.0,0.4466201663017273,-0.3103691041469574,-0.11953400075435634,1.2184696791468346e-07,0.0,0.0,0.0,1.2184696791468346e-07,0.0,0.0,0.0,1.2184696791468346e-07,-0.1765197,-0.3530393999999987,10.1596894,8.999999999999999e-08,0.0,0.0,0.0,8.999999999999999e-08,0.0,0.0,0.0,8.999999999999999e-08
1737285488.337389,13065,1737285488,333718208,base_link,-0.012958121338222165,0.05363216760789985,-0.2049862659301937,-0.9772084263191031,1.0,0.0,0.0,0.0,1.0,0.0,0.0,0.0,1.0,-0.1239369586110115,0.09699632227420808,0.14348812401294708,1.2184696791468346e-07,0.0,0.0,0.0,1.2184696791468346e-07,0.0,0.0,0.0,1.2184696791468346e-07,-0.02941995,-0.22555294999999875,10.2577559,8.999999999999999e-08,0.0,0.0,0.0,8.999999999999999e-08,0.0,0.0,0.0,8.999999999999999e-08
1737285488.437484,13066,1737285488,433718976,base_link,-0.006897651850502644,0.052690692895240664,-0.19705809031440863,-0.9789505719508045,1.0,0.0,0.0,0.0,1.0,0.0,0.0,0.0,1.0,-0.48929449915885925,0.36178675293922424,-0.12476186454296116,1.2184696791468346e-07,0.0,0.0,0.0,1.2184696791468346e-07,0.0,0.0,0.0,1.2184696791468346e-07,-0.1569064,-0.5001391499999988,10.2577559,8.999999999999999e-08,0.0,0.0,0.0,8.999999999999999e-08,0.0,0.0,0.0,8.999999999999999e-08
