Time,header.seq,header.stamp.secs,header.stamp.nsecs,header.frame_id,orientation.x,orientation.y,orientation.z,orientation.w,orientation_covariance_0,orientation_covariance_1,orientation_covariance_2,orientation_covariance_3,orientation_covariance_4,orientation_covariance_5,orientation_covariance_6,orientation_covariance_7,orientation_covariance_8,angular_velocity.x,angular_velocity.y,angular_velocity.z,angular_velocity_covariance_0,angular_velocity_covariance_1,angular_velocity_covariance_2,angular_velocity_covariance_3,angular_velocity_covariance_4,angular_velocity_covariance_5,angular_velocity_covariance_6,angular_velocity_covariance_7,angular_velocity_covariance_8,linear_acceleration.x,linear_acceleration.y,linear_acceleration.z,linear_acceleration_covariance_0,linear_acceleration_covariance_1,linear_acceleration_covariance_2,linear_acceleration_covariance_3,linear_acceleration_covariance_4,linear_acceleration_covariance_5,linear_acceleration_covariance_6,linear_acceleration_covariance_7,linear_acceleration_covariance_8
1729690889.2924776,1594,1729690889,167272256,base_link,0.002624591171915181,0.030699141154467514,0.3548844469522695,-0.934402324250609,1.0,0.0,0.0,0.0,1.0,0.0,0.0,0.0,1.0,-0.07031630724668503,-0.06692142039537431,-0.09898584336042403,1.2184696791468346e-07,0.0,0.0,0.0,1.2184696791468346e-07,0.0,0.0,0.0,1.2184696791468346e-07,0.196133,0.6276256000000011,9.20844435,8.999999999999999e-08,0.0,0.0,0.0,8.999999999999999e-08,0.0,0.0,0.0,8.999999999999999e-08
1729690889.2927225,1595,1729690889,267268416,base_link,-0.0016266107405878655,0.03317212370135478,0.35745298925803204,-0.9333404120775752,1.0,0.0,0.0,0.0,1.0,0.0,0.0,0.0,1.0,0.17649869620800018,-0.005900323856621977,0.029702167958021164,1.2184696791468346e-07,0.0,0.0,0.0,1.2184696791468346e-07,0.0,0.0,0.0,1.2184696791468346e-07,0.18632635,0.6864655000000012,9.5712904,8.999999999999999e-08,0.0,0.0,0.0,8.999999999999999e-08,0.0,0.0,0.0,8.999999999999999e-08
1729690889.3662271,1596,1729690889,365264832,base_link,-0.003078312065579739,0.036161055924440695,0.3562223750190455,-0.9336961612671688,1.0,0.0,0.0,0.0,1.0,0.0,0.0,0.0,1.0,0.12792165577411652,-0.08298949897289275,0.10354020446538927,1.2184696791468346e-07,0.0,0.0,0.0,1.2184696791468346e-07,0.0,0.0,0.0,1.2184696791468346e-07,-0.14709975,0.4216859500000012,9.54187045,8.999999999999999e-08,0.0,0.0,0.0,8.999999999999999e-08,0.0,0.0,0.0,8.999999999999999e-08
1729690889.466367,1597,1729690889,465257920,base_link,-0.004352008957608194,0.0374923941922645,0.35243507280114,-0.9350748097641279,1.0,0.0,0.0,0.0,1.0,0.0,0.0,0.0,1.0,-0.14860418438911438,-0.1506001502275467,0.01349006127566101,1.2184696791468346e-07,0.0,0.0,0.0,1.2184696791468346e-07,0.0,0.0,0.0,1.2184696791468346e-07,0.14709975,0.7256921000000012,9.16921775,8.999999999999999e-08,0.0,0.0,0.0,8.999999999999999e-08,0.0,0.0,0.0,8.999999999999999e-08
1729690889.5661469,1598,1729690889,565254080,base_link,-0.007445962222356487,0.04031072127443219,0.3498980966538149,-0.9358904451670376,1.0,0.0,0.0,0.0,1.0,0.0,0.0,0.0,1.0,0.2732464075088501,-0.09733342379331587,0.08022302389144899,1.2184696791468346e-07,0.0,0.0,0.0,1.2184696791468346e-07,0.0,0.0,0.0,1.2184696791468346e-07,0.0980665,0.6570455500000011,8.83579165,8.999999999999999e-08,0.0,0.0,0.0,8.999999999999999e-08,0.0,0.0,0.0,8.999999999999999e-08
1729690889.6661587,1599,1729690889,665248704,base_link,-0.00408259369586766,0.040635883912151415,0.3541414601912454,-0.9342996754473404,1.0,0.0,0.0,0.0,1.0,0.0,0.0,0.0,1.0,-0.19216583669185638,-0.019900809973478328,-0.07812820374965668,1.2184696791468346e-07,0.0,0.0,0.0,1.2184696791468346e-07,0.0,0.0,0.0,1.2184696791468346e-07,0.10787315,0.22555295000000108,8.81617835,8.999999999999999e-08,0.0,0.0,0.0,8.999999999999999e-08,0.0,0.0,0.0,8.999999999999999e-08
1729690889.7672698,1600,1729690889,766244352,base_link,0.0001779169868575649,0.04238934549360584,0.35684958448429444,-0.9331995958998032,1.0,0.0,0.0,0.0,1.0,0.0,0.0,0.0,1.0,-0.08047506958246231,-0.04974593594670296,-0.02038030326366424,1.2184696791468346e-07,0.0,0.0,0.0,1.2184696791468346e-07,0.0,0.0,0.0,1.2184696791468346e-07,0.0,0.5589790500000011,9.551677100000001,8.999999999999999e-08,0.0,0.0,0.0,8.999999999999999e-08,0.0,0.0,0.0,8.999999999999999e-08
1729690889.867342,1601,1729690889,866238976,base_link,-0.0029479566706822505,0.042865366565563535,0.3593956227925036,-0.9321956104907683,1.0,0.0,0.0,0.0,1.0,0.0,0.0,0.0,1.0,-0.02126447483897209,-0.06720400601625443,0.029345320537686355,1.2184696791468346e-07,0.0,0.0,0.0,1.2184696791468346e-07,0.0,0.0,0.0,1.2184696791468346e-07,-0.04903325,0.47071920000000117,9.44380395,8.999999999999999e-08,0.0,0.0,0.0,8.999999999999999e-08,0.0,0.0,0.0,8.999999999999999e-08
1729690889.9677436,1602,1729690889,966233856,base_link,-0.003804930607893903,0.045605120785285454,0.358614021838721,-0.932363490706219,1.0,0.0,0.0,0.0,1.0,0.0,0.0,0.0,1.0,0.13843201100826263,-0.16308905184268951,0.08107467740774156,1.2184696791468346e-07,0.0,0.0,0.0,1.2184696791468346e-07,0.0,0.0,0.0,1.2184696791468346e-07,0.0980665,0.6570455500000011,9.1594111,8.999999999999999e-08,0.0,0.0,0.0,8.999999999999999e-08,0.0,0.0,0.0,8.999999999999999e-08
1729690890.0678625,1603,1729690890,66228992,base_link,-0.0042524605396267075,0.04828071701892354,0.3584915537718366,-0.932273937648024,1.0,0.0,0.0,0.0,1.0,0.0,0.0,0.0,1.0,0.17401355504989624,0.05339354276657105,0.07774653285741806,1.2184696791468346e-07,0.0,0.0,0.0,1.2184696791468346e-07,0.0,0.0,0.0,1.2184696791468346e-07,0.196133,0.6570455500000011,8.63965865,8.999999999999999e-08,0.0,0.0,0.0,8.999999999999999e-08,0.0,0.0,0.0,8.999999999999999e-08
1729690890.168454,1604,1729690890,166223872,base_link,-0.003716175215032674,0.05034719941818496,0.3590763256743239,-0.9319418125037333,1.0,0.0,0.0,0.0,1.0,0.0,0.0,0.0,1.0,0.14051824808120728,-0.08974847197532654,-0.0003347606398165116,1.2184696791468346e-07,0.0,0.0,0.0,1.2184696791468346e-07,0.0,0.0,0.0,1.2184696791468346e-07,0.0588399,0.31381280000000117,9.7281968,8.999999999999999e-08,0.0,0.0,0.0,8.999999999999999e-08,0.0,0.0,0.0,8.999999999999999e-08
1729690890.2675142,1605,1729690890,266218752,base_link,-0.004427768559377994,0.049286680081653184,0.35717862303954206,-0.9327243157952352,1.0,0.0,0.0,0.0,1.0,0.0,0.0,0.0,1.0,-0.04097294062376022,-0.06037292256951332,0.019146326929330833,1.2184696791468346e-07,0.0,0.0,0.0,1.2184696791468346e-07,0.0,0.0,0.0,1.2184696791468346e-07,0.24516625,0.6178189500000011,9.07115125,8.999999999999999e-08,0.0,0.0,0.0,8.999999999999999e-08,0.0,0.0,0.0,8.999999999999999e-08
1729690890.3672824,1606,1729690890,366212096,base_link,-0.006479337557047933,0.047548499422019545,0.3541785745616963,-0.9339457670062974,1.0,0.0,0.0,0.0,1.0,0.0,0.0,0.0,1.0,-0.13198426365852356,-0.09554172307252884,0.0486053302884102,1.2184696791468346e-07,0.0,0.0,0.0,1.2184696791468346e-07,0.0,0.0,0.0,1.2184696791468346e-07,0.40207265000000003,0.7551120500000011,8.85540495,8.999999999999999e-08,0.0,0.0,0.0,8.999999999999999e-08,0.0,0.0,0.0,8.999999999999999e-08
1729690890.467255,1607,1729690890,466206976,base_link,-0.008708039164071826,0.04608324208617738,0.3553288610333601,-0.9335640874463192,1.0,0.0,0.0,0.0,1.0,0.0,0.0,0.0,1.0,0.1336396336555481,0.10525615513324738,0.013378370553255069,1.2184696791468346e-07,0.0,0.0,0.0,1.2184696791468346e-07,0.0,0.0,0.0,1.2184696791468346e-07,0.00980665,0.3138128000000011,9.0809579,8.999999999999999e-08,0.0,0.0,0.0,8.999999999999999e-08,0.0,0.0,0.0,8.999999999999999e-08
1729690890.567341,1608,1729690890,566198784,base_link,-0.01207020880175827,0.044425096049234905,0.3566444099252733,-0.9331052918988038,1.0,0.0,0.0,0.0,1.0,0.0,0.0,0.0,1.0,-0.06738680601119995,-0.04081124812364579,-0.06501036882400513,1.2184696791468346e-07,0.0,0.0,0.0,1.2184696791468346e-07,0.0,0.0,0.0,1.2184696791468346e-07,0.196133,0.6472389000000013,10.002783,8.999999999999999e-08,0.0,0.0,0.0,8.999999999999999e-08,0.0,0.0,0.0,8.999999999999999e-08
1729690890.6674473,1609,1729690890,666195200,base_link,-0.014325455890515915,0.041260654354841934,0.3585205195082836,-0.9324995318000162,1.0,0.0,0.0,0.0,1.0,0.0,0.0,0.0,1.0,0.10139141976833344,0.23156999051570892,0.027868229895830127,1.2184696791468346e-07,0.0,0.0,0.0,1.2184696791468346e-07,0.0,0.0,0.0,1.2184696791468346e-07,0.14709975,0.3922660000000011,9.18883105,8.999999999999999e-08,0.0,0.0,0.0,8.999999999999999e-08,0.0,0.0,0.0,8.999999999999999e-08
1729690890.7684436,1610,1729690890,767191616,base_link,-0.0173078113211016,0.03962149183895448,0.3571894776428212,-0.9330306822998788,1.0,0.0,0.0,0.0,1.0,0.0,0.0,0.0,1.0,0.1488429456949234,0.16172955930233004,0.12244838476181029,1.2184696791468346e-07,0.0,0.0,0.0,1.2184696791468346e-07,0.0,0.0,0.0,1.2184696791468346e-07,0.1176798,0.7060788000000012,9.8262633,8.999999999999999e-08,0.0,0.0,0.0,8.999999999999999e-08,0.0,0.0,0.0,8.999999999999999e-08
1729690890.868544,1611,1729690890,867188032,base_link,-0.019571844371509866,0.03948645302022428,0.35699195765997666,-0.9330672564729063,1.0,0.0,0.0,0.0,1.0,0.0,0.0,0.0,1.0,0.017091257497668266,0.09315145015716553,-0.009509867057204259,1.2184696791468346e-07,0.0,0.0,0.0,1.2184696791468346e-07,0.0,0.0,0.0,1.2184696791468346e-07,-0.0588399,0.31381280000000117,9.73800345,8.999999999999999e-08,0.0,0.0,0.0,8.999999999999999e-08,0.0,0.0,0.0,8.999999999999999e-08
1729690890.9698586,1612,1729690890,967183424,base_link,-0.021823859143529547,0.04032124643898717,0.3555855284212841,-0.9335185312756498,1.0,0.0,0.0,0.0,1.0,0.0,0.0,0.0,1.0,0.03528675064444542,0.11152610927820206,0.03982796519994734,1.2184696791468346e-07,0.0,0.0,0.0,1.2184696791468346e-07,0.0,0.0,0.0,1.2184696791468346e-07,0.14709975,0.6080123000000012,9.1201845,8.999999999999999e-08,0.0,0.0,0.0,8.999999999999999e-08,0.0,0.0,0.0,8.999999999999999e-08
1729690891.0694306,1613,1729690891,67178816,base_link,-0.02480498705710298,0.0437339992181768,0.3547266128915648,-0.9336172020887143,1.0,0.0,0.0,0.0,1.0,0.0,0.0,0.0,1.0,0.34933674335479736,-0.03943313285708426,0.10453639179468155,1.2184696791468346e-07,0.0,0.0,0.0,1.2184696791468346e-07,0.0,0.0,0.0,1.2184696791468346e-07,0.1176798,0.8433719000000012,9.463417250000001,8.999999999999999e-08,0.0,0.0,0.0,8.999999999999999e-08,0.0,0.0,0.0,8.999999999999999e-08
1729690891.1663065,1614,1729690891,165175488,base_link,-0.02711815940214534,0.04662095384121388,0.35472415303986926,-0.9334140921068863,1.0,0.0,0.0,0.0,1.0,0.0,0.0,0.0,1.0,0.21179063618183136,0.052866473793983466,0.05823985859751701,1.2184696791468346e-07,0.0,0.0,0.0,1.2184696791468346e-07,0.0,0.0,0.0,1.2184696791468346e-07,0.1372931,0.6570455500000011,9.52225715,8.999999999999999e-08,0.0,0.0,0.0,8.999999999999999e-08,0.0,0.0,0.0,8.999999999999999e-08
1729690891.2663138,1615,1729690891,265168064,base_link,-0.030954627000000356,0.04731629530942631,0.3545681379331616,-0.9333190316435706,1.0,0.0,0.0,0.0,1.0,0.0,0.0,0.0,1.0,0.02173137664794922,-0.011058085598051543,0.04468092694878578,1.2184696791468346e-07,0.0,0.0,0.0,1.2184696791468346e-07,0.0,0.0,0.0,1.2184696791468346e-07,0.20593965,1.010084950000001,9.54187045,8.999999999999999e-08,0.0,0.0,0.0,8.999999999999999e-08,0.0,0.0,0.0,8.999999999999999e-08
1729690891.3673413,1616,1729690891,366160384,base_link,-0.03352972974413172,0.04511933775175941,0.35396755971822635,-0.9335667995656509,1.0,0.0,0.0,0.0,1.0,0.0,0.0,0.0,1.0,0.1307452768087387,0.14447815716266632,0.04880959913134573,1.2184696791468346e-07,0.0,0.0,0.0,1.2184696791468346e-07,0.0,0.0,0.0,1.2184696791468346e-07,0.08825985,0.38245935000000114,9.012311350000001,8.999999999999999e-08,0.0,0.0,0.0,8.999999999999999e-08,0.0,0.0,0.0,8.999999999999999e-08
1729690891.4675543,1617,1729690891,466156032,base_link,-0.034195515081584735,0.041120256376078676,0.35299251327256514,-0.9340963959021514,1.0,0.0,0.0,0.0,1.0,0.0,0.0,0.0,1.0,-0.2320055365562439,-0.0056891171261668275,-0.05932147800922394,1.2184696791468346e-07,0.0,0.0,0.0,1.2184696791468346e-07,0.0,0.0,0.0,1.2184696791468346e-07,0.36284605000000003,0.8237586000000011,9.65955025,8.999999999999999e-08,0.0,0.0,0.0,8.999999999999999e-08,0.0,0.0,0.0,8.999999999999999e-08
1729690891.568405,1618,1729690891,566151168,base_link,-0.035086210683846965,0.03438684530246593,0.35227390477320003,-0.9346066545375308,1.0,0.0,0.0,0.0,1.0,0.0,0.0,0.0,1.0,-0.10423597693443298,0.12596721947193146,-0.039218842983245863,1.2184696791468346e-07,0.0,0.0,0.0,1.2184696791468346e-07,0.0,0.0,0.0,1.2184696791468346e-07,0.2157463,0.7354987500000011,9.3163175,8.999999999999999e-08,0.0,0.0,0.0,8.999999999999999e-08,0.0,0.0,0.0,8.999999999999999e-08
1729690891.6683862,1619,1729690891,666149888,base_link,-0.035412110018613246,0.030406503355544703,0.3517632882466854,-0.9349246044786703,1.0,0.0,0.0,0.0,1.0,0.0,0.0,0.0,1.0,-0.1432366967201233,0.06617413461208344,0.036294329911470406,1.2184696791468346e-07,0.0,0.0,0.0,1.2184696791468346e-07,0.0,0.0,0.0,1.2184696791468346e-07,0.12748645,0.7551120500000013,10.0616229,8.999999999999999e-08,0.0,0.0,0.0,8.999999999999999e-08,0.0,0.0,0.0,8.999999999999999e-08
1729690891.7708805,1620,1729690891,769144000,base_link,-0.037314263858402,0.028914119023172976,0.3506629174795209,-0.9353112517972667,1.0,0.0,0.0,0.0,1.0,0.0,0.0,0.0,1.0,0.003072632709518075,-0.041997514665126794,0.04920656606554986,1.2184696791468346e-07,0.0,0.0,0.0,1.2184696791468346e-07,0.0,0.0,0.0,1.2184696791468346e-07,0.2941995,0.6276256000000012,9.8654899,8.999999999999999e-08,0.0,0.0,0.0,8.999999999999999e-08,0.0,0.0,0.0,8.999999999999999e-08
1729690891.8692975,1621,1729690891,867138112,base_link,-0.03969193589228722,0.02725532220016486,0.34962624554482613,-0.935651209619865,1.0,0.0,0.0,0.0,1.0,0.0,0.0,0.0,1.0,-0.16172201931476593,0.11386318504810333,-0.009793502278625979,1.2184696791468346e-07,0.0,0.0,0.0,1.2184696791468346e-07,0.0,0.0,0.0,1.2184696791468346e-07,0.42168595,0.7060788000000012,9.71839015,8.999999999999999e-08,0.0,0.0,0.0,8.999999999999999e-08,0.0,0.0,0.0,8.999999999999999e-08
1729690891.966792,1622,1729690891,965135296,base_link,-0.0396083555203628,0.024192115262136472,0.34881723998883507,-0.9360408392899784,1.0,0.0,0.0,0.0,1.0,0.0,0.0,0.0,1.0,0.057669077068567276,0.11551432311534882,0.011064627207815633,1.2184696791468346e-07,0.0,0.0,0.0,1.2184696791468346e-07,0.0,0.0,0.0,1.2184696791468346e-07,0.22555295,0.8237586000000012,10.0812362,8.999999999999999e-08,0.0,0.0,0.0,8.999999999999999e-08,0.0,0.0,0.0,8.999999999999999e-08
1729690892.0664823,1623,1729690892,65130944,base_link,-0.037491230009403013,0.021933211449460803,0.34910625802666256,-0.9360759384336919,1.0,0.0,0.0,0.0,1.0,0.0,0.0,0.0,1.0,0.22109270095825195,0.16038073599338531,0.03549224883317945,1.2184696791468346e-07,0.0,0.0,0.0,1.2184696791468346e-07,0.0,0.0,0.0,1.2184696791468346e-07,0.2353596,1.0591182000000012,10.32640245,8.999999999999999e-08,0.0,0.0,0.0,8.999999999999999e-08,0.0,0.0,0.0,8.999999999999999e-08
1729690892.167324,1624,1729690892,165128640,base_link,-0.03698403471301209,0.022072744666969304,0.3500354279724729,-0.935745785073778,1.0,0.0,0.0,0.0,1.0,0.0,0.0,0.0,1.0,-0.16666074097156525,-0.1677274852991104,-0.06295245140790938,1.2184696791468346e-07,0.0,0.0,0.0,1.2184696791468346e-07,0.0,0.0,0.0,1.2184696791468346e-07,0.02941995,0.5295591000000013,10.3165958,8.999999999999999e-08,0.0,0.0,0.0,8.999999999999999e-08,0.0,0.0,0.0,8.999999999999999e-08
1729690892.2670004,1625,1729690892,265122240,base_link,-0.03587912951362798,0.02154136549792808,0.3510747124955592,-0.9354117830581294,1.0,0.0,0.0,0.0,1.0,0.0,0.0,0.0,1.0,-0.1361757516860962,0.07088097929954529,-0.035852417349815376,1.2184696791468346e-07,0.0,0.0,0.0,1.2184696791468346e-07,0.0,0.0,0.0,1.2184696791468346e-07,0.32361945000000003,0.9022118000000012,9.7085835,8.999999999999999e-08,0.0,0.0,0.0,8.999999999999999e-08,0.0,0.0,0.0,8.999999999999999e-08
1729690892.3676488,1626,1729690892,366119168,base_link,-0.03856804706599598,0.021058690909946207,0.35051290752002845,-0.9355264501576267,1.0,0.0,0.0,0.0,1.0,0.0,0.0,0.0,1.0,0.13922001421451569,0.05808692798018456,0.06607011705636977,1.2184696791468346e-07,0.0,0.0,0.0,1.2184696791468346e-07,0.0,0.0,0.0,1.2184696791468346e-07,0.4118793,0.9414384000000011,9.56148375,8.999999999999999e-08,0.0,0.0,0.0,8.999999999999999e-08,0.0,0.0,0.0,8.999999999999999e-08
1729690892.467702,1627,1729690892,466114560,base_link,-0.035568806514859386,0.02130594510087863,0.3503512468035626,-0.9357002300788728,1.0,0.0,0.0,0.0,1.0,0.0,0.0,0.0,1.0,-0.07469770312309265,-0.04249818995594979,-0.05438274517655372,1.2184696791468346e-07,0.0,0.0,0.0,1.2184696791468346e-07,0.0,0.0,0.0,1.2184696791468346e-07,0.22555295,0.5785923500000013,10.2773692,8.999999999999999e-08,0.0,0.0,0.0,8.999999999999999e-08,0.0,0.0,0.0,8.999999999999999e-08
1729690892.5675607,1628,1729690892,566110208,base_link,-0.03271952731987132,0.01872062378806971,0.34915087212080054,-0.936307983130676,1.0,0.0,0.0,0.0,1.0,0.0,0.0,0.0,1.0,-0.14693598449230194,0.031163070350885398,0.045500129461288445,1.2184696791468346e-07,0.0,0.0,0.0,1.2184696791468346e-07,0.0,0.0,0.0,1.2184696791468346e-07,0.42168595,0.8531785500000011,9.3555441,8.999999999999999e-08,0.0,0.0,0.0,8.999999999999999e-08,0.0,0.0,0.0,8.999999999999999e-08
1729690892.667655,1629,1729690892,666104064,base_link,-0.029434226459081687,0.01929934659051335,0.3473586809401143,-0.9370715598658828,1.0,0.0,0.0,0.0,1.0,0.0,0.0,0.0,1.0,-0.18851642310619354,-0.03692211955785751,-0.011164341121911997,1.2184696791468346e-07,0.0,0.0,0.0,1.2184696791468346e-07,0.0,0.0,0.0,1.2184696791468346e-07,0.06864655,0.7354987500000013,10.11065615,8.999999999999999e-08,0.0,0.0,0.0,8.999999999999999e-08,0.0,0.0,0.0,8.999999999999999e-08
1729690892.7678592,1630,1729690892,766099456,base_link,-0.027362727423440737,0.01749340325828108,0.3449934620866635,-0.938043055039507,1.0,0.0,0.0,0.0,1.0,0.0,0.0,0.0,1.0,-0.04702136665582657,0.09777516126632692,0.0679422542452812,1.2184696791468346e-07,0.0,0.0,0.0,1.2184696791468346e-07,0.0,0.0,0.0,1.2184696791468346e-07,0.38245935,1.1081514500000014,9.73800345,8.999999999999999e-08,0.0,0.0,0.0,8.999999999999999e-08,0.0,0.0,0.0,8.999999999999999e-08
1729690892.867556,1631,1729690892,866096384,base_link,-0.02613225066218246,0.01862343560616174,0.3426837046342636,-0.9389026316395586,1.0,0.0,0.0,0.0,1.0,0.0,0.0,0.0,1.0,0.3008422553539276,0.07659453898668292,0.17016230523586273,1.2184696791468346e-07,0.0,0.0,0.0,1.2184696791468346e-07,0.0,0.0,0.0,1.2184696791468346e-07,0.16671305,1.2062179500000012,10.18910935,8.999999999999999e-08,0.0,0.0,0.0,8.999999999999999e-08,0.0,0.0,0.0,8.999999999999999e-08
1729690892.9677105,1632,1729690892,966096384,base_link,-0.024719697388429433,0.016891945413517417,0.34206389395647946,-0.9391996013587854,1.0,0.0,0.0,0.0,1.0,0.0,0.0,0.0,1.0,0.27035704255104065,-0.0158516652882099,0.12350064516067505,1.2184696791468346e-07,0.0,0.0,0.0,1.2184696791468346e-07,0.0,0.0,0.0,1.2184696791468346e-07,0.2353596,0.6570455500000013,10.2773692,8.999999999999999e-08,0.0,0.0,0.0,8.999999999999999e-08,0.0,0.0,0.0,8.999999999999999e-08
1729690893.067795,1633,1729690893,66089216,base_link,-0.02270170192534719,0.01857813715179628,0.34562787749403284,-0.9379130321349796,1.0,0.0,0.0,0.0,1.0,0.0,0.0,0.0,1.0,-0.12011588364839554,-0.06647594273090364,-0.13535623252391815,1.2184696791468346e-07,0.0,0.0,0.0,1.2184696791468346e-07,0.0,0.0,0.0,1.2184696791468346e-07,-0.08825985,0.5883990000000012,10.40485565,8.999999999999999e-08,0.0,0.0,0.0,8.999999999999999e-08,0.0,0.0,0.0,8.999999999999999e-08
1729690893.1688814,1634,1729690893,167083584,base_link,-0.017950362259056635,0.018366907569464918,0.3509183491386835,-0.9360538197341457,1.0,0.0,0.0,0.0,1.0,0.0,0.0,0.0,1.0,-0.31460076570510864,-0.0779162496328354,-0.16470156610012054,1.2184696791468346e-07,0.0,0.0,0.0,1.2184696791468346e-07,0.0,0.0,0.0,1.2184696791468346e-07,0.36284605000000003,0.8531785500000011,9.610517,8.999999999999999e-08,0.0,0.0,0.0,8.999999999999999e-08,0.0,0.0,0.0,8.999999999999999e-08
1729690893.2685945,1635,1729690893,267080000,base_link,-0.014165896380059937,0.018778074229946633,0.3547814372227134,-0.934653327769259,1.0,0.0,0.0,0.0,1.0,0.0,0.0,0.0,1.0,-0.2303074598312378,0.015106853097677222,-0.06461898982524872,1.2184696791468346e-07,0.0,0.0,0.0,1.2184696791468346e-07,0.0,0.0,0.0,1.2184696791468346e-07,0.32361945000000003,1.147378050000001,9.30651085,8.999999999999999e-08,0.0,0.0,0.0,8.999999999999999e-08,0.0,0.0,0.0,8.999999999999999e-08
1729690893.3667648,1636,1729690893,365072576,base_link,-0.011322989530590261,0.021104951748201393,0.35618900382096097,-0.9341069341766113,1.0,0.0,0.0,0.0,1.0,0.0,0.0,0.0,1.0,-0.12531235814094543,-0.09765736013650894,-0.002402106299996364,1.2184696791468346e-07,0.0,0.0,0.0,1.2184696791468346e-07,0.0,0.0,0.0,1.2184696791468346e-07,0.04903325,1.1081514500000014,10.3754357,8.999999999999999e-08,0.0,0.0,0.0,8.999999999999999e-08,0.0,0.0,0.0,8.999999999999999e-08
1729690893.466684,1637,1729690893,465068992,base_link,-0.012266686834428425,0.023374418611942893,0.35585063723662136,-0.9341699464909745,1.0,0.0,0.0,0.0,1.0,0.0,0.0,0.0,1.0,-0.15862128138542175,-0.05826766416430474,-0.04307310283184051,1.2184696791468346e-07,0.0,0.0,0.0,1.2184696791468346e-07,0.0,0.0,0.0,1.2184696791468346e-07,-0.06864655,0.9120184500000013,9.91452315,8.999999999999999e-08,0.0,0.0,0.0,8.999999999999999e-08,0.0,0.0,0.0,8.999999999999999e-08
1729690893.5668945,1638,1729690893,565060800,base_link,-0.011675567300427302,0.023091000879681092,0.35308323044566214,-0.9352340451377095,1.0,0.0,0.0,0.0,1.0,0.0,0.0,0.0,1.0,-0.07644530385732651,0.07947742938995361,0.025897815823554982,1.2184696791468346e-07,0.0,0.0,0.0,1.2184696791468346e-07,0.0,0.0,0.0,1.2184696791468346e-07,0.196133,1.1964113000000012,9.40457735,8.999999999999999e-08,0.0,0.0,0.0,8.999999999999999e-08,0.0,0.0,0.0,8.999999999999999e-08
1729690893.666844,1639,1729690893,665052608,base_link,-0.011980155554193083,0.020571165041992346,0.35158492057088203,-0.9358532719763708,1.0,0.0,0.0,0.0,1.0,0.0,0.0,0.0,1.0,0.050985317677259445,0.09272871166467667,0.04689051210880278,1.2184696791468346e-07,0.0,0.0,0.0,1.2184696791468346e-07,0.0,0.0,0.0,1.2184696791468346e-07,0.34323275,1.1277647500000012,10.01258965,8.999999999999999e-08,0.0,0.0,0.0,8.999999999999999e-08,0.0,0.0,0.0,8.999999999999999e-08
1729690893.7667274,1640,1729690893,766043904,base_link,-0.010074159666663552,0.026296542762348784,0.3510392729566014,-0.9359371944675878,1.0,0.0,0.0,0.0,1.0,0.0,0.0,0.0,1.0,0.11329704523086548,-0.15078255534172058,0.008343206718564053,1.2184696791468346e-07,0.0,0.0,0.0,1.2184696791468346e-07,0.0,0.0,0.0,1.2184696791468346e-07,0.0392266,1.0591182000000012,10.24794925,8.999999999999999e-08,0.0,0.0,0.0,8.999999999999999e-08,0.0,0.0,0.0,8.999999999999999e-08
1729690893.8678522,1641,1729690893,866035968,base_link,-0.0073382153741773865,0.032610750330956985,0.35115910766666003,-0.9357189592290676,1.0,0.0,0.0,0.0,1.0,0.0,0.0,0.0,1.0,-0.0659283995628357,-0.09476041048765182,0.008598852902650845,1.2184696791468346e-07,0.0,0.0,0.0,1.2184696791468346e-07,0.0,0.0,0.0,1.2184696791468346e-07,0.06864655,1.0493115500000012,10.2773692,8.999999999999999e-08,0.0,0.0,0.0,8.999999999999999e-08,0.0,0.0,0.0,8.999999999999999e-08
1729690893.967941,1642,1729690893,967027776,base_link,-0.0015068681574006838,0.03416352890285989,0.3492862987930685,-0.9363918325768861,1.0,0.0,0.0,0.0,1.0,0.0,0.0,0.0,1.0,-0.21012477576732635,-0.0841688886284828,0.08072125911712648,1.2184696791468346e-07,0.0,0.0,0.0,1.2184696791468346e-07,0.0,0.0,0.0,1.2184696791468346e-07,0.1372931,0.8727918500000013,10.03220295,8.999999999999999e-08,0.0,0.0,0.0,8.999999999999999e-08,0.0,0.0,0.0,8.999999999999999e-08
1729690894.0660307,1643,1729690894,65019840,base_link,0.0018039426059134169,0.0358626927046492,0.3475598810234211,-0.9369699793301982,1.0,0.0,0.0,0.0,1.0,0.0,0.0,0.0,1.0,-0.1279672533273697,-0.009403472766280169,0.035466477274894714,1.2184696791468346e-07,0.0,0.0,0.0,1.2184696791468346e-07,0.0,0.0,0.0,1.2184696791468346e-07,0.20593965,0.7354987500000013,9.7870367,8.999999999999999e-08,0.0,0.0,0.0,8.999999999999999e-08,0.0,0.0,0.0,8.999999999999999e-08
1729690894.16678,1644,1729690894,165017536,base_link,0.002130776335617162,0.03649742502159436,0.32133228570014616,-0.9462605137728828,1.0,0.0,0.0,0.0,1.0,0.0,0.0,0.0,1.0,0.12693996727466583,-0.016981903463602056,0.08100531995296478,1.2184696791468346e-07,0.0,0.0,0.0,1.2184696791468346e-07,0.0,0.0,0.0,1.2184696791468346e-07,0.0196133,0.8825985000000013,9.85568325,8.999999999999999e-08,0.0,0.0,0.0,8.999999999999999e-08,0.0,0.0,0.0,8.999999999999999e-08
1729690894.2679024,1645,1729690894,266014208,base_link,-0.0018860133376978302,0.03610862968648094,0.35903825235732734,-0.9326221867187434,1.0,0.0,0.0,0.0,1.0,0.0,0.0,0.0,1.0,0.17135609686374664,-0.0067484257742762505,0.047530822455883026,1.2184696791468346e-07,0.0,0.0,0.0,1.2184696791468346e-07,0.0,0.0,0.0,1.2184696791468346e-07,0.36284605000000003,0.8531785500000013,9.8654899,8.999999999999999e-08,0.0,0.0,0.0,8.999999999999999e-08,0.0,0.0,0.0,8.999999999999999e-08
1729690894.3659296,1646,1729690894,365010880,base_link,0.000502222713265558,0.034264044336890204,0.43866339787997827,-0.8979978543395402,1.0,0.0,0.0,0.0,1.0,0.0,0.0,0.0,1.0,-0.11750955879688263,-0.16212257742881772,0.13838256895542148,1.2184696791468346e-07,0.0,0.0,0.0,1.2184696791468346e-07,0.0,0.0,0.0,1.2184696791468346e-07,0.28439285000000003,0.8629852000000012,9.85568325,8.999999999999999e-08,0.0,0.0,0.0,8.999999999999999e-08,0.0,0.0,0.0,8.999999999999999e-08
1729690894.4683022,1647,1729690894,467004736,base_link,-0.0025262854294197095,0.04178563728496233,0.47597497052363735,-0.8784619546876468,1.0,0.0,0.0,0.0,1.0,0.0,0.0,0.0,1.0,0.06687799841165543,-0.1055840998888015,0.5473690032958984,1.2184696791468346e-07,0.0,0.0,0.0,1.2184696791468346e-07,0.0,0.0,0.0,1.2184696791468346e-07,0.12748645,0.8629852000000012,9.7674234,8.999999999999999e-08,0.0,0.0,0.0,8.999999999999999e-08,0.0,0.0,0.0,8.999999999999999e-08
1729690894.5679176,1648,1729690894,566001920,base_link,-0.0007100733919342968,0.05023268680347359,0.4597914702038961,-0.8866047467163831,1.0,0.0,0.0,0.0,1.0,0.0,0.0,0.0,1.0,0.07567200809717178,-0.1986333280801772,0.8434715270996094,1.2184696791468346e-07,0.0,0.0,0.0,1.2184696791468346e-07,0.0,0.0,0.0,1.2184696791468346e-07,0.1176798,0.5982056500000011,9.7674234,8.999999999999999e-08,0.0,0.0,0.0,8.999999999999999e-08,0.0,0.0,0.0,8.999999999999999e-08
1729690894.665812,1649,1729690894,665000128,base_link,0.0009545989358032079,0.055333284761109006,0.41512846598039016,-0.9080780104546007,1.0,0.0,0.0,0.0,1.0,0.0,0.0,0.0,1.0,0.023035958409309387,0.10562413185834897,1.052194595336914,1.2184696791468346e-07,0.0,0.0,0.0,1.2184696791468346e-07,0.0,0.0,0.0,1.2184696791468346e-07,0.26477955,1.0591182000000012,9.2967042,8.999999999999999e-08,0.0,0.0,0.0,8.999999999999999e-08,0.0,0.0,0.0,8.999999999999999e-08
1729690894.7675583,1650,1729690894,765997056,base_link,0.001863554407560995,0.055890224729499526,0.36545828936933106,-0.9291464086331597,1.0,0.0,0.0,0.0,1.0,0.0,0.0,0.0,1.0,0.04295632243156433,0.1305396705865861,0.8464540243148804,1.2184696791468346e-07,0.0,0.0,0.0,1.2184696791468346e-07,0.0,0.0,0.0,1.2184696791468346e-07,0.196133,0.6668522000000012,10.3362091,8.999999999999999e-08,0.0,0.0,0.0,8.999999999999999e-08,0.0,0.0,0.0,8.999999999999999e-08
1729690894.868563,1651,1729690894,866993728,base_link,0.0016756144037327557,0.05159415229145619,0.32914970694495294,-0.94286568830547,1.0,0.0,0.0,0.0,1.0,0.0,0.0,0.0,1.0,0.16061998903751373,0.16311286389827737,0.665761411190033,1.2184696791468346e-07,0.0,0.0,0.0,1.2184696791468346e-07,0.0,0.0,0.0,1.2184696791468346e-07,0.2745862,0.7453054000000012,9.99297635,8.999999999999999e-08,0.0,0.0,0.0,8.999999999999999e-08,0.0,0.0,0.0,8.999999999999999e-08
1729690894.9676547,1652,1729690894,965993216,base_link,0.004526569833810961,0.046444425928377005,0.312198025243777,-0.9488702853918489,1.0,0.0,0.0,0.0,1.0,0.0,0.0,0.0,1.0,0.19094133377075195,0.11428973078727726,0.39098477363586426,1.2184696791468346e-07,0.0,0.0,0.0,1.2184696791468346e-07,0.0,0.0,0.0,1.2184696791468346e-07,0.2745862,0.5785923500000013,10.2185293,8.999999999999999e-08,0.0,0.0,0.0,8.999999999999999e-08,0.0,0.0,0.0,8.999999999999999e-08
1729690895.0696669,1653,1729690895,66989632,base_link,0.004716718801654539,0.043298839023413214,0.31137324439248604,-0.9492890317387364,1.0,0.0,0.0,0.0,1.0,0.0,0.0,0.0,1.0,0.24861861765384674,0.05049056559801105,0.25976330041885376,1.2184696791468346e-07,0.0,0.0,0.0,1.2184696791468346e-07,0.0,0.0,0.0,1.2184696791468346e-07,0.30400615,0.12748645000000125,10.1008495,8.999999999999999e-08,0.0,0.0,0.0,8.999999999999999e-08,0.0,0.0,0.0,8.999999999999999e-08
1729690895.170709,1654,1729690895,167985024,base_link,0.006150986096092314,0.04262245649972621,0.32176151951880877,-0.9458409042375582,1.0,0.0,0.0,0.0,1.0,0.0,0.0,0.0,1.0,-0.08346349000930786,-0.0011592768132686632,-0.014447148889303207,1.2184696791468346e-07,0.0,0.0,0.0,1.2184696791468346e-07,0.0,0.0,0.0,1.2184696791468346e-07,-0.12748645,0.21574630000000128,10.4342756,8.999999999999999e-08,0.0,0.0,0.0,8.999999999999999e-08,0.0,0.0,0.0,8.999999999999999e-08
1729690895.268045,1655,1729690895,266979904,base_link,0.004482544571720163,0.043564073000538085,0.3337414124160152,-0.9416468276250547,1.0,0.0,0.0,0.0,1.0,0.0,0.0,0.0,1.0,0.4086531698703766,0.0739717409014702,0.08777571469545363,1.2184696791468346e-07,0.0,0.0,0.0,1.2184696791468346e-07,0.0,0.0,0.0,1.2184696791468346e-07,0.0980665,0.8825985000000013,10.6892485,8.999999999999999e-08,0.0,0.0,0.0,8.999999999999999e-08,0.0,0.0,0.0,8.999999999999999e-08
1729690895.3700755,1656,1729690895,367977856,base_link,0.0010108786920152478,0.0439942287177644,0.3443687540732981,-0.9378025630066298,1.0,0.0,0.0,0.0,1.0,0.0,0.0,0.0,1.0,0.1290937215089798,0.0782003626227379,0.06458777934312819,1.2184696791468346e-07,0.0,0.0,0.0,1.2184696791468346e-07,0.0,0.0,0.0,1.2184696791468346e-07,0.26477955,0.8825985000000013,10.179302700000001,8.999999999999999e-08,0.0,0.0,0.0,8.999999999999999e-08,0.0,0.0,0.0,8.999999999999999e-08
1729690895.46642,1657,1729690895,464972224,base_link,-0.001991918005034114,0.04521526069856937,0.3517440785310567,-0.9350014522346795,1.0,0.0,0.0,0.0,1.0,0.0,0.0,0.0,1.0,0.3300786316394806,0.15429177880287173,0.11382236331701277,1.2184696791468346e-07,0.0,0.0,0.0,1.2184696791468346e-07,0.0,0.0,0.0,1.2184696791468346e-07,-0.0588399,0.5099458000000013,10.69905515,8.999999999999999e-08,0.0,0.0,0.0,8.999999999999999e-08,0.0,0.0,0.0,8.999999999999999e-08
1729690895.5685167,1658,1729690895,565967360,base_link,-0.006081820982478384,0.045154514897515464,0.3533340254637271,-0.9343870438354256,1.0,0.0,0.0,0.0,1.0,0.0,0.0,0.0,1.0,-0.09886027127504349,-0.10630640387535094,0.14161695539951324,1.2184696791468346e-07,0.0,0.0,0.0,1.2184696791468346e-07,0.0,0.0,0.0,1.2184696791468346e-07,0.1765197,0.6668522000000012,10.806928300000001,8.999999999999999e-08,0.0,0.0,0.0,8.999999999999999e-08,0.0,0.0,0.0,8.999999999999999e-08
1729690895.6661472,1659,1729690895,664959680,base_link,-0.01051905540358896,0.0445838002417804,0.3504375020555992,-0.9354652272438828,1.0,0.0,0.0,0.0,1.0,0.0,0.0,0.0,1.0,0.33167731761932373,0.14313361048698428,0.2534702718257904,1.2184696791468346e-07,0.0,0.0,0.0,1.2184696791468346e-07,0.0,0.0,0.0,1.2184696791468346e-07,0.4314926,0.7649187000000013,10.46369555,8.999999999999999e-08,0.0,0.0,0.0,8.999999999999999e-08,0.0,0.0,0.0,8.999999999999999e-08
1729690895.7684977,1660,1729690895,766954560,base_link,-0.013618228477726398,0.04456168537862872,0.3433128936408329,-0.9380645271564758,1.0,0.0,0.0,0.0,1.0,0.0,0.0,0.0,1.0,-0.16178736090660095,0.012926732189953358,0.2570990324020386,1.2184696791468346e-07,0.0,0.0,0.0,1.2184696791468346e-07,0.0,0.0,0.0,1.2184696791468346e-07,0.0980665,0.5393657500000014,11.2188076,8.999999999999999e-08,0.0,0.0,0.0,8.999999999999999e-08,0.0,0.0,0.0,8.999999999999999e-08
1729690895.8672435,1661,1729690895,865952256,base_link,-0.017466625964547268,0.04578243554753183,0.3354458170264988,-0.9407842416899719,1.0,0.0,0.0,0.0,1.0,0.0,0.0,0.0,1.0,0.24867364764213562,0.147472158074379,0.22955155372619626,1.2184696791468346e-07,0.0,0.0,0.0,1.2184696791468346e-07,0.0,0.0,0.0,1.2184696791468346e-07,0.0588399,0.3922660000000013,10.42446895,8.999999999999999e-08,0.0,0.0,0.0,8.999999999999999e-08,0.0,0.0,0.0,8.999999999999999e-08
1729690895.9660473,1662,1729690895,964947648,base_link,-0.01711180419822588,0.04129873432749027,0.331199737614595,-0.9425011058370447,1.0,0.0,0.0,0.0,1.0,0.0,0.0,0.0,1.0,0.11598643660545349,0.1557489782571793,0.15754465758800504,1.2184696791468346e-07,0.0,0.0,0.0,1.2184696791468346e-07,0.0,0.0,0.0,1.2184696791468346e-07,0.32361945000000003,0.7354987500000013,10.7480884,8.999999999999999e-08,0.0,0.0,0.0,8.999999999999999e-08,0.0,0.0,0.0,8.999999999999999e-08
1729690896.066258,1663,1729690896,64945088,base_link,-0.01647386935754231,0.03635358839278155,0.33029812102560013,-0.943032438194104,1.0,0.0,0.0,0.0,1.0,0.0,0.0,0.0,1.0,-0.25571152567863464,0.1019776463508606,0.030329141765832887,1.2184696791468346e-07,0.0,0.0,0.0,1.2184696791468346e-07,0.0,0.0,0.0,1.2184696791468346e-07,-0.00980665,0.5785923500000013,10.81673495,8.999999999999999e-08,0.0,0.0,0.0,8.999999999999999e-08,0.0,0.0,0.0,8.999999999999999e-08
1729690896.1703556,1664,1729690896,166943296,base_link,-0.021283937304018376,0.03219906961583611,0.3325562875448816,-0.942293229065708,1.0,0.0,0.0,0.0,1.0,0.0,0.0,0.0,1.0,-0.11027608811855316,-0.04723838716745377,-0.05026037618517875,1.2184696791468346e-07,0.0,0.0,0.0,1.2184696791468346e-07,0.0,0.0,0.0,1.2184696791468346e-07,0.12748645,0.4707192000000013,10.18910935,8.999999999999999e-08,0.0,0.0,0.0,8.999999999999999e-08,0.0,0.0,0.0,8.999999999999999e-08
1729690896.2688773,1665,1729690896,266940224,base_link,-0.02209746797603801,0.029323919153603065,0.33900704225172257,-0.940067037491614,1.0,0.0,0.0,0.0,1.0,0.0,0.0,0.0,1.0,0.062283795326948166,0.08908011019229888,-0.0768411085009575,1.2184696791468346e-07,0.0,0.0,0.0,1.2184696791468346e-07,0.0,0.0,0.0,1.2184696791468346e-07,0.1569064,0.4020726500000012,9.7674234,8.999999999999999e-08,0.0,0.0,0.0,8.999999999999999e-08,0.0,0.0,0.0,8.999999999999999e-08
1729690896.3678908,1666,1729690896,365936896,base_link,-0.030116405424103716,0.03096891673009267,0.34186916085882574,-0.9387541771808944,1.0,0.0,0.0,0.0,1.0,0.0,0.0,0.0,1.0,0.0956844910979271,-0.1109609380364418,0.04719491302967073,1.2184696791468346e-07,0.0,0.0,0.0,1.2184696791468346e-07,0.0,0.0,0.0,1.2184696791468346e-07,0.1765197,0.4216859500000012,9.7281968,8.999999999999999e-08,0.0,0.0,0.0,8.999999999999999e-08,0.0,0.0,0.0,8.999999999999999e-08
1729690896.4681146,1667,1729690896,465935360,base_link,-0.0359201143051714,0.032591647729765014,0.3409828763719611,-0.9388174518550805,1.0,0.0,0.0,0.0,1.0,0.0,0.0,0.0,1.0,0.011649850755929947,-0.10647530853748322,0.05221384391188623,1.2184696791468346e-07,0.0,0.0,0.0,1.2184696791468346e-07,0.0,0.0,0.0,1.2184696791468346e-07,0.3530394,0.7845320000000011,9.3751574,8.999999999999999e-08,0.0,0.0,0.0,8.999999999999999e-08,0.0,0.0,0.0,8.999999999999999e-08
1729690896.5684035,1668,1729690896,566929472,base_link,-0.0406687155101753,0.03234307148624598,0.3381426214483292,-0.9396592727503092,1.0,0.0,0.0,0.0,1.0,0.0,0.0,0.0,1.0,0.08215630054473877,0.1547801643610001,0.173217236995697,1.2184696791468346e-07,0.0,0.0,0.0,1.2184696791468346e-07,0.0,0.0,0.0,1.2184696791468346e-07,0.12748645,0.47071920000000117,9.50264385,8.999999999999999e-08,0.0,0.0,0.0,8.999999999999999e-08,0.0,0.0,0.0,8.999999999999999e-08
1729690896.6679535,1669,1729690896,665927168,base_link,-0.03858870409304922,0.03057246874310192,0.3329102572690069,-0.9416724465951283,1.0,0.0,0.0,0.0,1.0,0.0,0.0,0.0,1.0,-0.04135411977767944,0.16496220231056216,0.13727833330631253,1.2184696791468346e-07,0.0,0.0,0.0,1.2184696791468346e-07,0.0,0.0,0.0,1.2184696791468346e-07,-0.00980665,0.7256921000000013,10.5519554,8.999999999999999e-08,0.0,0.0,0.0,8.999999999999999e-08,0.0,0.0,0.0,8.999999999999999e-08
1729690896.7682168,1670,1729690896,766921024,base_link,-0.040802394391380996,0.02816958354631944,0.32719166404813227,-0.9436563220538352,1.0,0.0,0.0,0.0,1.0,0.0,0.0,0.0,1.0,0.022197654470801353,0.04837780445814134,0.1381574273109436,1.2184696791468346e-07,0.0,0.0,0.0,1.2184696791468346e-07,0.0,0.0,0.0,1.2184696791468346e-07,0.24516625,0.6766588500000013,10.05181625,8.999999999999999e-08,0.0,0.0,0.0,8.999999999999999e-08,0.0,0.0,0.0,8.999999999999999e-08
1729690896.8671806,1671,1729690896,865918208,base_link,-0.03652017036224701,0.026565604487940413,0.3240635945126331,-0.9449567887085919,1.0,0.0,0.0,0.0,1.0,0.0,0.0,0.0,1.0,-0.15894627571105957,-0.041646391153335564,0.03356898948550225,1.2184696791468346e-07,0.0,0.0,0.0,1.2184696791468346e-07,0.0,0.0,0.0,1.2184696791468346e-07,0.12748645,0.7747253500000013,10.3362091,8.999999999999999e-08,0.0,0.0,0.0,8.999999999999999e-08,0.0,0.0,0.0,8.999999999999999e-08
1729690896.9661827,1672,1729690896,964911296,base_link,-0.03558652755046993,0.022135721655109585,0.3227200648561898,-0.9455661630065471,1.0,0.0,0.0,0.0,1.0,0.0,0.0,0.0,1.0,-0.15235763788223267,0.1110115796327591,0.020280683413147912,1.2184696791468346e-07,0.0,0.0,0.0,1.2184696791468346e-07,0.0,0.0,0.0,1.2184696791468346e-07,0.46091255,0.6276256000000011,9.6301303,8.999999999999999e-08,0.0,0.0,0.0,8.999999999999999e-08,0.0,0.0,0.0,8.999999999999999e-08
1729690897.0683768,1673,1729690897,66910528,base_link,-0.033129243451612535,0.020927767616059745,0.32030720433826765,-0.9465029194988968,1.0,0.0,0.0,0.0,1.0,0.0,0.0,0.0,1.0,-0.2001029998064041,-0.08688846975564957,0.012768389657139789,1.2184696791468346e-07,0.0,0.0,0.0,1.2184696791468346e-07,0.0,0.0,0.0,1.2184696791468346e-07,0.26477955,0.7060788000000012,10.1596894,8.999999999999999e-08,0.0,0.0,0.0,8.999999999999999e-08,0.0,0.0,0.0,8.999999999999999e-08
1729690897.1682622,1674,1729690897,166906944,base_link,-0.03297892446416518,0.023705959085815125,0.3176071347013402,-0.9473521657925383,1.0,0.0,0.0,0.0,1.0,0.0,0.0,0.0,1.0,0.11897052824497223,0.03491497784852982,0.061495020985603326,1.2184696791468346e-07,0.0,0.0,0.0,1.2184696791468346e-07,0.0,0.0,0.0,1.2184696791468346e-07,0.1765197,0.3530394000000013,10.4146623,8.999999999999999e-08,0.0,0.0,0.0,8.999999999999999e-08,0.0,0.0,0.0,8.999999999999999e-08
1729690897.2672756,1675,1729690897,265896960,base_link,-0.026861261874078383,0.025871213603368273,0.31418426007392236,-0.9486292234793439,1.0,0.0,0.0,0.0,1.0,0.0,0.0,0.0,1.0,-0.3762807846069336,-0.1621575504541397,0.006260516121983548,1.2184696791468346e-07,0.0,0.0,0.0,1.2184696791468346e-07,0.0,0.0,0.0,1.2184696791468346e-07,0.2745862,0.8531785500000011,9.50264385,8.999999999999999e-08,0.0,0.0,0.0,8.999999999999999e-08,0.0,0.0,0.0,8.999999999999999e-08
1729690897.3672116,1676,1729690897,365888256,base_link,-0.027818578820038565,0.02862156966505953,0.312012807098625,-0.9492391377460043,1.0,0.0,0.0,0.0,1.0,0.0,0.0,0.0,1.0,0.24475529789924622,0.08332477509975435,0.08685172349214552,1.2184696791468346e-07,0.0,0.0,0.0,1.2184696791468346e-07,0.0,0.0,0.0,1.2184696791468346e-07,0.26477955,0.6570455500000013,10.13026945,8.999999999999999e-08,0.0,0.0,0.0,8.999999999999999e-08,0.0,0.0,0.0,8.999999999999999e-08
1729690897.4671957,1677,1729690897,465879552,base_link,-0.029151953416871032,0.0284616754673642,0.3111816915861136,-0.9494767250771214,1.0,0.0,0.0,0.0,1.0,0.0,0.0,0.0,1.0,0.2443116009235382,0.06486155837774278,0.1225556656718254,1.2184696791468346e-07,0.0,0.0,0.0,1.2184696791468346e-07,0.0,0.0,0.0,1.2184696791468346e-07,0.14709975,0.3138128000000013,10.0616229,8.999999999999999e-08,0.0,0.0,0.0,8.999999999999999e-08,0.0,0.0,0.0,8.999999999999999e-08
1729690897.570399,1678,1729690897,568869568,base_link,-0.029746645955995164,0.026405670236363362,0.31437269739946255,-0.9484659639457407,1.0,0.0,0.0,0.0,1.0,0.0,0.0,0.0,1.0,0.06509145349264145,-0.058237694203853614,-0.03964658454060554,1.2184696791468346e-07,0.0,0.0,0.0,1.2184696791468346e-07,0.0,0.0,0.0,1.2184696791468346e-07,0.18632635,0.27458620000000117,9.52225715,8.999999999999999e-08,0.0,0.0,0.0,8.999999999999999e-08,0.0,0.0,0.0,8.999999999999999e-08
1729690897.6689112,1679,1729690897,666869568,base_link,-0.0225703944977703,0.024503065129099937,0.3209336809327423,-0.9465155833553165,1.0,0.0,0.0,0.0,1.0,0.0,0.0,0.0,1.0,-0.2700851261615753,0.03523025661706923,-0.13970622420310974,1.2184696791468346e-07,0.0,0.0,0.0,1.2184696791468346e-07,0.0,0.0,0.0,1.2184696791468346e-07,0.2549729,0.7845320000000011,9.30651085,8.999999999999999e-08,0.0,0.0,0.0,8.999999999999999e-08,0.0,0.0,0.0,8.999999999999999e-08
1729690897.7686458,1680,1729690897,766869568,base_link,-0.019021648903585785,0.023858756133067503,0.32597287191867863,-0.9448865664204673,1.0,0.0,0.0,0.0,1.0,0.0,0.0,0.0,1.0,0.2979870140552521,0.060999467968940735,-0.02228344231843949,1.2184696791468346e-07,0.0,0.0,0.0,1.2184696791468346e-07,0.0,0.0,0.0,1.2184696791468346e-07,0.1372931,0.5099458000000012,9.6301303,8.999999999999999e-08,0.0,0.0,0.0,8.999999999999999e-08,0.0,0.0,0.0,8.999999999999999e-08
1729690897.8672764,1681,1729690897,865866496,base_link,-0.01486452097362022,0.02406124634618749,0.3294144955741834,-0.9437617244549067,1.0,0.0,0.0,0.0,1.0,0.0,0.0,0.0,1.0,-0.36080437898635864,-0.1536613702774048,-0.16625107824802396,1.2184696791468346e-07,0.0,0.0,0.0,1.2184696791468346e-07,0.0,0.0,0.0,1.2184696791468346e-07,0.1176798,0.5295591000000012,9.58109705,8.999999999999999e-08,0.0,0.0,0.0,8.999999999999999e-08,0.0,0.0,0.0,8.999999999999999e-08
1729690897.9672759,1682,1729690897,965860864,base_link,-0.016993702376565938,0.026436272673785836,0.33102042218329886,-0.9431001100966134,1.0,0.0,0.0,0.0,1.0,0.0,0.0,0.0,1.0,-0.008302134461700916,-0.11517123878002168,-0.09579408913850783,1.2184696791468346e-07,0.0,0.0,0.0,1.2184696791468346e-07,0.0,0.0,0.0,1.2184696791468346e-07,0.28439285000000003,0.6276256000000011,8.75733845,8.999999999999999e-08,0.0,0.0,0.0,8.999999999999999e-08,0.0,0.0,0.0,8.999999999999999e-08
1729690898.067409,1683,1729690898,65854208,base_link,-0.01575990377421635,0.030290433827912244,0.32999591386218197,-0.9433646229776733,1.0,0.0,0.0,0.0,1.0,0.0,0.0,0.0,1.0,0.2612247169017792,-0.12674559652805328,0.06262654066085817,1.2184696791468346e-07,0.0,0.0,0.0,1.2184696791468346e-07,0.0,0.0,0.0,1.2184696791468346e-07,0.1372931,0.7354987500000011,9.1201845,8.999999999999999e-08,0.0,0.0,0.0,8.999999999999999e-08,0.0,0.0,0.0,8.999999999999999e-08
1729690898.1673052,1684,1729690898,165847808,base_link,-0.01278212568531785,0.03251685391137968,0.32770172214508486,-0.9441349759318401,1.0,0.0,0.0,0.0,1.0,0.0,0.0,0.0,1.0,-0.029750172048807144,-0.16071419417858124,0.01974812150001528,1.2184696791468346e-07,0.0,0.0,0.0,1.2184696791468346e-07,0.0,0.0,0.0,1.2184696791468346e-07,0.2353596,0.8335652500000011,9.09076455,8.999999999999999e-08,0.0,0.0,0.0,8.999999999999999e-08,0.0,0.0,0.0,8.999999999999999e-08
1729690898.2673607,1685,1729690898,265843712,base_link,-0.008947437687275989,0.033415932529279144,0.32484462197739583,-0.9451345356002994,1.0,0.0,0.0,0.0,1.0,0.0,0.0,0.0,1.0,-0.17673195898532867,-0.07589678466320038,-0.03240758925676345,1.2184696791468346e-07,0.0,0.0,0.0,1.2184696791468346e-07,0.0,0.0,0.0,1.2184696791468346e-07,0.48052585000000003,0.5589790500000011,8.95347145,8.999999999999999e-08,0.0,0.0,0.0,8.999999999999999e-08,0.0,0.0,0.0,8.999999999999999e-08
1729690898.3673701,1686,1729690898,365836800,base_link,-0.015557071881095511,0.033019566108172055,0.32383574648779884,-0.9454089565183971,1.0,0.0,0.0,0.0,1.0,0.0,0.0,0.0,1.0,-0.002221728442236781,-0.12928736209869385,-0.06651361286640166,1.2184696791468346e-07,0.0,0.0,0.0,1.2184696791468346e-07,0.0,0.0,0.0,1.2184696791468346e-07,0.3726527,0.8629852000000011,9.4339973,8.999999999999999e-08,0.0,0.0,0.0,8.999999999999999e-08,0.0,0.0,0.0,8.999999999999999e-08
1729690898.467487,1687,1729690898,465829888,base_link,-0.014860599491421904,0.032691675611010974,0.3255882246673025,-0.9448294686801922,1.0,0.0,0.0,0.0,1.0,0.0,0.0,0.0,1.0,-0.3699566721916199,-0.06372926384210587,-0.042675241827964776,1.2184696791468346e-07,0.0,0.0,0.0,1.2184696791468346e-07,0.0,0.0,0.0,1.2184696791468346e-07,0.1176798,0.37265270000000106,8.8063717,8.999999999999999e-08,0.0,0.0,0.0,8.999999999999999e-08,0.0,0.0,0.0,8.999999999999999e-08
1729690898.5708308,1688,1729690898,565822976,base_link,-0.01726296724205687,0.03296924814431836,0.3253581454128266,-0.9448582411411375,1.0,0.0,0.0,0.0,1.0,0.0,0.0,0.0,1.0,0.18376782536506653,0.0898093804717064,0.11871954798698424,1.2184696791468346e-07,0.0,0.0,0.0,1.2184696791468346e-07,0.0,0.0,0.0,1.2184696791468346e-07,0.2549729,0.5687857000000012,9.32612415,8.999999999999999e-08,0.0,0.0,0.0,8.999999999999999e-08,0.0,0.0,0.0,8.999999999999999e-08
1729690898.666745,1689,1729690898,664817856,base_link,-0.017769138234181643,0.03494841178870933,0.32427562920911773,-0.9451498201559856,1.0,0.0,0.0,0.0,1.0,0.0,0.0,0.0,1.0,0.08671067655086517,0.11553951352834702,0.052574835717678056,1.2184696791468346e-07,0.0,0.0,0.0,1.2184696791468346e-07,0.0,0.0,0.0,1.2184696791468346e-07,0.28439285000000003,0.5785923500000012,9.77723005,8.999999999999999e-08,0.0,0.0,0.0,8.999999999999999e-08,0.0,0.0,0.0,8.999999999999999e-08
1729690898.7725635,1690,1729690898,770812480,base_link,-0.013265396179350212,0.03669587335963597,0.3232122124015312,-0.9455217120178077,1.0,0.0,0.0,0.0,1.0,0.0,0.0,0.0,1.0,0.053994014859199524,-0.14093700051307678,0.06066233664751054,1.2184696791468346e-07,0.0,0.0,0.0,1.2184696791468346e-07,0.0,0.0,0.0,1.2184696791468346e-07,0.4118793,0.33342610000000117,9.7281968,8.999999999999999e-08,0.0,0.0,0.0,8.999999999999999e-08,0.0,0.0,0.0,8.999999999999999e-08
1729690898.8676937,1691,1729690898,865809920,base_link,-0.005366242775240919,0.03512049370820743,0.3260160477366644,-0.9446964014848018,1.0,0.0,0.0,0.0,1.0,0.0,0.0,0.0,1.0,0.10665005445480347,-0.07255613803863525,-0.04001814499497413,1.2184696791468346e-07,0.0,0.0,0.0,1.2184696791468346e-07,0.0,0.0,0.0,1.2184696791468346e-07,0.34323275,0.21574630000000122,9.95374975,8.999999999999999e-08,0.0,0.0,0.0,8.999999999999999e-08,0.0,0.0,0.0,8.999999999999999e-08
1729690898.9680955,1692,1729690898,965800704,base_link,0.0004858080289078678,0.03731433812023705,0.3318594276566953,-0.9425904330283532,1.0,0.0,0.0,0.0,1.0,0.0,0.0,0.0,1.0,-0.34584710001945496,-0.25883886218070984,-0.18520204722881314,1.2184696791468346e-07,0.0,0.0,0.0,1.2184696791468346e-07,0.0,0.0,0.0,1.2184696791468346e-07,0.57859235,0.47071920000000117,9.6693569,8.999999999999999e-08,0.0,0.0,0.0,8.999999999999999e-08,0.0,0.0,0.0,8.999999999999999e-08
1729690899.0675192,1693,1729690899,65800192,base_link,-0.0006615717761525401,0.04213543837244545,0.33571074492952,-0.9410220310358381,1.0,0.0,0.0,0.0,1.0,0.0,0.0,0.0,1.0,0.13828855752944946,-0.1059783771634102,-0.06151357293128966,1.2184696791468346e-07,0.0,0.0,0.0,1.2184696791468346e-07,0.0,0.0,0.0,1.2184696791468346e-07,0.57859235,0.8433719000000012,9.32612415,8.999999999999999e-08,0.0,0.0,0.0,8.999999999999999e-08,0.0,0.0,0.0,8.999999999999999e-08
1729690899.166579,1694,1729690899,165794048,base_link,-0.0033060892084964114,0.048415972756454435,0.3378071982435813,-0.9399634355500289,1.0,0.0,0.0,0.0,1.0,0.0,0.0,0.0,1.0,0.19869592785835266,-0.0005175601691007695,-0.06648646295070648,1.2184696791468346e-07,0.0,0.0,0.0,1.2184696791468346e-07,0.0,0.0,0.0,1.2184696791468346e-07,0.22555295,0.3432327500000012,9.4928372,8.999999999999999e-08,0.0,0.0,0.0,8.999999999999999e-08,0.0,0.0,0.0,8.999999999999999e-08
1729690899.2664595,1695,1729690899,265787648,base_link,-0.008394598555060216,0.05344396767076479,0.3360194150555164,-0.9403000721793304,1.0,0.0,0.0,0.0,1.0,0.0,0.0,0.0,1.0,0.065675750374794,0.07240867614746094,0.019604213535785665,1.2184696791468346e-07,0.0,0.0,0.0,1.2184696791468346e-07,0.0,0.0,0.0,1.2184696791468346e-07,0.4511059,0.8727918500000013,9.87529655,8.999999999999999e-08,0.0,0.0,0.0,8.999999999999999e-08,0.0,0.0,0.0,8.999999999999999e-08
1729690899.366575,1696,1729690899,364782272,base_link,-0.01670058917795653,0.0554963064938587,0.33014094631096397,-0.9421508402880878,1.0,0.0,0.0,0.0,1.0,0.0,0.0,0.0,1.0,-0.11768907308578491,-0.12382990121841429,0.07504486292600633,1.2184696791468346e-07,0.0,0.0,0.0,1.2184696791468346e-07,0.0,0.0,0.0,1.2184696791468346e-07,0.50013915,0.9022118000000012,10.0420096,8.999999999999999e-08,0.0,0.0,0.0,8.999999999999999e-08,0.0,0.0,0.0,8.999999999999999e-08
1729690899.4655533,1697,1729690899,464777152,base_link,-0.014606724880087836,0.056431568620731516,0.32418484616318066,-0.9441961169002107,1.0,0.0,0.0,0.0,1.0,0.0,0.0,0.0,1.0,-0.06677145510911942,0.010906361974775803,0.09642686694860458,1.2184696791468346e-07,0.0,0.0,0.0,1.2184696791468346e-07,0.0,0.0,0.0,1.2184696791468346e-07,0.7453054,0.9022118000000011,9.6693569,8.999999999999999e-08,0.0,0.0,0.0,8.999999999999999e-08,0.0,0.0,0.0,8.999999999999999e-08
1729690899.565777,1698,1729690899,564771776,base_link,-0.009752357027620855,0.057041225374838626,0.321596764775996,-0.9451067193845122,1.0,0.0,0.0,0.0,1.0,0.0,0.0,0.0,1.0,-0.11057852953672409,0.03152205795049667,-0.050045348703861244,1.2184696791468346e-07,0.0,0.0,0.0,1.2184696791468346e-07,0.0,0.0,0.0,1.2184696791468346e-07,0.55897905,0.5589790500000013,10.20872265,8.999999999999999e-08,0.0,0.0,0.0,8.999999999999999e-08,0.0,0.0,0.0,8.999999999999999e-08
1729690899.6656592,1699,1729690899,664767936,base_link,-0.011059542417395178,0.05210948446806542,0.31978289542372346,-0.9459921711855813,1.0,0.0,0.0,0.0,1.0,0.0,0.0,0.0,1.0,0.009486284106969833,-0.006242559757083651,0.028630342334508896,1.2184696791468346e-07,0.0,0.0,0.0,1.2184696791468346e-07,0.0,0.0,0.0,1.2184696791468346e-07,0.4707192,0.6080123000000012,9.5124505,8.999999999999999e-08,0.0,0.0,0.0,8.999999999999999e-08,0.0,0.0,0.0,8.999999999999999e-08
1729690899.7655537,1700,1729690899,764764864,base_link,-0.008060019749730111,0.052233496652044506,0.3216521763741832,-0.9453817088049072,1.0,0.0,0.0,0.0,1.0,0.0,0.0,0.0,1.0,-0.25987550616264343,-0.09370876103639605,-0.1792268007993698,1.2184696791468346e-07,0.0,0.0,0.0,1.2184696791468346e-07,0.0,0.0,0.0,1.2184696791468346e-07,0.18632635,0.34323275000000125,10.3362091,8.999999999999999e-08,0.0,0.0,0.0,8.999999999999999e-08,0.0,0.0,0.0,8.999999999999999e-08
1729690899.8685389,1701,1729690899,866762816,base_link,-0.008893496112607436,0.05599832934133455,0.32476841679919694,-0.9440924574889992,1.0,0.0,0.0,0.0,1.0,0.0,0.0,0.0,1.0,0.02193331904709339,-0.01182328816503288,-0.13255590200424194,1.2184696791468346e-07,0.0,0.0,0.0,1.2184696791468346e-07,0.0,0.0,0.0,1.2184696791468346e-07,0.57859235,0.7354987500000011,9.56148375,8.999999999999999e-08,0.0,0.0,0.0,8.999999999999999e-08,0.0,0.0,0.0,8.999999999999999e-08
1729690899.9656703,1702,1729690899,964759744,base_link,-0.00628792150614089,0.060167528538472,0.3284978711143184,-0.9425653713276683,1.0,0.0,0.0,0.0,1.0,0.0,0.0,0.0,1.0,-0.056691620498895645,-0.0039846217259764775,-0.08171821385622025,1.2184696791468346e-07,0.0,0.0,0.0,1.2184696791468346e-07,0.0,0.0,0.0,1.2184696791468346e-07,0.3138128,0.6962721500000011,9.6693569,8.999999999999999e-08,0.0,0.0,0.0,8.999999999999999e-08,0.0,0.0,0.0,8.999999999999999e-08
1729690900.067689,1703,1729690900,66756672,base_link,-0.005469639893113383,0.059558392562035094,0.3306442282096365,-0.9418584157220872,1.0,0.0,0.0,0.0,1.0,0.0,0.0,0.0,1.0,-0.010491396300494671,0.1406419724225998,-0.027561035007238405,1.2184696791468346e-07,0.0,0.0,0.0,1.2184696791468346e-07,0.0,0.0,0.0,1.2184696791468346e-07,0.2745862,0.8727918500000013,10.1400761,8.999999999999999e-08,0.0,0.0,0.0,8.999999999999999e-08,0.0,0.0,0.0,8.999999999999999e-08
1729690900.168601,1704,1729690900,167753600,base_link,-0.005643109792975639,0.05675524285512428,0.3302750656333781,-0.942159953904425,1.0,0.0,0.0,0.0,1.0,0.0,0.0,0.0,1.0,-0.2340007722377777,0.1078299805521965,0.02121031656861304,1.2184696791468346e-07,0.0,0.0,0.0,1.2184696791468346e-07,0.0,0.0,0.0,1.2184696791468346e-07,0.4707192,0.7354987500000013,10.18910935,8.999999999999999e-08,0.0,0.0,0.0,8.999999999999999e-08,0.0,0.0,0.0,8.999999999999999e-08
1729690900.265682,1705,1729690900,264749248,base_link,-0.005089631676764935,0.05265644645382341,0.32936527957905265,-0.9427194210920145,1.0,0.0,0.0,0.0,1.0,0.0,0.0,0.0,1.0,0.2148599773645401,0.1063813716173172,-0.006652772892266525,1.2184696791468346e-07,0.0,0.0,0.0,1.2184696791468346e-07,0.0,0.0,0.0,1.2184696791468346e-07,0.48052585000000003,0.7256921000000013,9.8458766,8.999999999999999e-08,0.0,0.0,0.0,8.999999999999999e-08,0.0,0.0,0.0,8.999999999999999e-08
1729690900.3706586,1706,1729690900,368746176,base_link,-0.007695557612716569,0.05009628332308345,0.3295574562458869,-0.9427741107089136,1.0,0.0,0.0,0.0,1.0,0.0,0.0,0.0,1.0,-0.11215094476938248,-0.07517867535352707,0.030841508880257617,1.2184696791468346e-07,0.0,0.0,0.0,1.2184696791468346e-07,0.0,0.0,0.0,1.2184696791468346e-07,0.44129925000000003,0.8825985000000013,10.355822400000001,8.999999999999999e-08,0.0,0.0,0.0,8.999999999999999e-08,0.0,0.0,0.0,8.999999999999999e-08
1729690900.4677272,1707,1729690900,466744640,base_link,-0.014776369203554489,0.05036401958093468,0.33003741618637394,-0.942507521647352,1.0,0.0,0.0,0.0,1.0,0.0,0.0,0.0,1.0,0.3495243787765503,0.10618738830089569,0.009891483932733524,1.2184696791468346e-07,0.0,0.0,0.0,1.2184696791468346e-07,0.0,0.0,0.0,1.2184696791468346e-07,0.38245935,0.7747253500000013,9.80665,8.999999999999999e-08,0.0,0.0,0.0,8.999999999999999e-08,0.0,0.0,0.0,8.999999999999999e-08
1729690900.5676472,1708,1729690900,566741312,base_link,-0.015919345397189942,0.04955205028134662,0.3329023731351092,-0.9415238598761331,1.0,0.0,0.0,0.0,1.0,0.0,0.0,0.0,1.0,0.24151016771793365,-0.03858136385679246,-0.030497884377837178,1.2184696791468346e-07,0.0,0.0,0.0,1.2184696791468346e-07,0.0,0.0,0.0,1.2184696791468346e-07,0.4118793,0.8433719000000013,10.4538889,8.999999999999999e-08,0.0,0.0,0.0,8.999999999999999e-08,0.0,0.0,0.0,8.999999999999999e-08
1729690900.6656501,1709,1729690900,664733632,base_link,-0.01593142221596992,0.049300867598836194,0.33424806228959447,-0.9410599593521287,1.0,0.0,0.0,0.0,1.0,0.0,0.0,0.0,1.0,-0.12050679326057434,-0.17987678945064545,-0.010979577898979164,1.2184696791468346e-07,0.0,0.0,0.0,1.2184696791468346e-07,0.0,0.0,0.0,1.2184696791468346e-07,0.3530394,0.6962721500000013,9.91452315,8.999999999999999e-08,0.0,0.0,0.0,8.999999999999999e-08,0.0,0.0,0.0,8.999999999999999e-08
1729690900.766727,1710,1729690900,764727744,base_link,-0.016125742374223113,0.047800366820370026,0.3356608855777911,-0.9406310941372558,1.0,0.0,0.0,0.0,1.0,0.0,0.0,0.0,1.0,0.17801056802272797,0.1472749561071396,0.052484530955553034,1.2184696791468346e-07,0.0,0.0,0.0,1.2184696791468346e-07,0.0,0.0,0.0,1.2184696791468346e-07,0.65704555,0.8629852000000012,9.79684335,8.999999999999999e-08,0.0,0.0,0.0,8.999999999999999e-08,0.0,0.0,0.0,8.999999999999999e-08
1729690900.8668742,1711,1729690900,864723392,base_link,-0.01554357812722442,0.04962719576814433,0.3363373010979409,-0.9403046094268315,1.0,0.0,0.0,0.0,1.0,0.0,0.0,0.0,1.0,0.26024559140205383,-0.003670089412480596,-0.029563510790467262,1.2184696791468346e-07,0.0,0.0,0.0,1.2184696791468346e-07,0.0,0.0,0.0,1.2184696791468346e-07,0.3334261,0.7845320000000012,10.56176205,8.999999999999999e-08,0.0,0.0,0.0,8.999999999999999e-08,0.0,0.0,0.0,8.999999999999999e-08
1729690900.9663916,1712,1729690900,964719296,base_link,-0.018645339559112215,0.049646851862500695,0.33673366520945647,-0.9401053026802231,1.0,0.0,0.0,0.0,1.0,0.0,0.0,0.0,1.0,-0.15441147983074188,-0.033109083771705634,-0.046608835458755486,1.2184696791468346e-07,0.0,0.0,0.0,1.2184696791468346e-07,0.0,0.0,0.0,1.2184696791468346e-07,0.63743225,0.7649187000000012,9.54187045,8.999999999999999e-08,0.0,0.0,0.0,8.999999999999999e-08,0.0,0.0,0.0,8.999999999999999e-08
1729690901.0697925,1713,1729690901,68715200,base_link,-0.020307377664795616,0.05145535722162365,0.3343665839899352,-0.9408182311884034,1.0,0.0,0.0,0.0,1.0,0.0,0.0,0.0,1.0,0.10746404528617859,0.026712376624345786,0.0564550906419754,1.2184696791468346e-07,0.0,0.0,0.0,1.2184696791468346e-07,0.0,0.0,0.0,1.2184696791468346e-07,0.51975245,0.9414384000000012,10.07142955,8.999999999999999e-08,0.0,0.0,0.0,8.999999999999999e-08,0.0,0.0,0.0,8.999999999999999e-08
1729690901.1738007,1714,1729690901,169710848,base_link,-0.017454761251159703,0.05315250029874105,0.33059666305914437,-0.9421125141912804,1.0,0.0,0.0,0.0,1.0,0.0,0.0,0.0,1.0,-0.07350850850343704,-0.17901299893856049,0.03203323110938074,1.2184696791468346e-07,0.0,0.0,0.0,1.2184696791468346e-07,0.0,0.0,0.0,1.2184696791468346e-07,0.61781895,0.6668522000000012,10.03220295,8.999999999999999e-08,0.0,0.0,0.0,8.999999999999999e-08,0.0,0.0,0.0,8.999999999999999e-08
1729690901.2697294,1715,1729690901,267710848,base_link,-0.012341524920272346,0.05444875423701268,0.3291321204410511,-0.9426319892824861,1.0,0.0,0.0,0.0,1.0,0.0,0.0,0.0,1.0,-0.368600070476532,-0.197291761636734,-0.01488217897713182,1.2184696791468346e-07,0.0,0.0,0.0,1.2184696791468346e-07,0.0,0.0,0.0,1.2184696791468346e-07,0.7060788,0.8139519500000013,9.9047165,8.999999999999999e-08,0.0,0.0,0.0,8.999999999999999e-08,0.0,0.0,0.0,8.999999999999999e-08
1729690901.3690822,1716,1729690901,367704704,base_link,-0.00930782882153962,0.05637816209599445,0.3301876478205956,-0.9421841563027946,1.0,0.0,0.0,0.0,1.0,0.0,0.0,0.0,1.0,0.06286439299583435,0.022807311266660687,-0.020868547260761264,1.2184696791468346e-07,0.0,0.0,0.0,1.2184696791468346e-07,0.0,0.0,0.0,1.2184696791468346e-07,0.63743225,0.9708583500000013,10.18910935,8.999999999999999e-08,0.0,0.0,0.0,8.999999999999999e-08,0.0,0.0,0.0,8.999999999999999e-08
1729690901.469596,1717,1729690901,465693184,base_link,-0.007939868096345148,0.056828779683338874,0.33219660198643974,-0.9414631516543694,1.0,0.0,0.0,0.0,1.0,0.0,0.0,0.0,1.0,-0.16600178182125092,0.05188161134719848,-0.07970984280109406,1.2184696791468346e-07,0.0,0.0,0.0,1.2184696791468346e-07,0.0,0.0,0.0,1.2184696791468346e-07,0.55897905,0.7060788000000011,9.6301303,8.999999999999999e-08,0.0,0.0,0.0,8.999999999999999e-08,0.0,0.0,0.0,8.999999999999999e-08
1729690901.566903,1718,1729690901,565682432,base_link,-0.007130630426672876,0.05726828375751696,0.33261897499602905,-0.9412938517050762,1.0,0.0,0.0,0.0,1.0,0.0,0.0,0.0,1.0,-0.2813379466533661,-0.0996764898300171,-0.06582181155681609,1.2184696791468346e-07,0.0,0.0,0.0,1.2184696791468346e-07,0.0,0.0,0.0,1.2184696791468346e-07,0.36284605000000003,0.5687857000000013,10.002783,8.999999999999999e-08,0.0,0.0,0.0,8.999999999999999e-08,0.0,0.0,0.0,8.999999999999999e-08
1729690901.6680934,1719,1729690901,665682432,base_link,-0.008053541894816633,0.05570879027647287,0.33368575640166986,-0.9410023842283959,1.0,0.0,0.0,0.0,1.0,0.0,0.0,0.0,1.0,-0.05384986847639084,0.054111409932374954,-0.0010683368891477652,1.2184696791468346e-07,0.0,0.0,0.0,1.2184696791468346e-07,0.0,0.0,0.0,1.2184696791468346e-07,0.6864655,0.8825985000000013,10.14988275,8.999999999999999e-08,0.0,0.0,0.0,8.999999999999999e-08,0.0,0.0,0.0,8.999999999999999e-08
1729690901.7678823,1720,1729690901,766670400,base_link,-0.007788550868652748,0.05672355386181271,0.3325022364914832,-0.9413628628965635,1.0,0.0,0.0,0.0,1.0,0.0,0.0,0.0,1.0,0.1805671602487564,-0.09184162318706512,0.0338055193424225,1.2184696791468346e-07,0.0,0.0,0.0,1.2184696791468346e-07,0.0,0.0,0.0,1.2184696791468346e-07,0.46091255,0.5982056500000013,10.11065615,8.999999999999999e-08,0.0,0.0,0.0,8.999999999999999e-08,0.0,0.0,0.0,8.999999999999999e-08
1729690901.8678496,1721,1729690901,866670400,base_link,-0.007278917471128392,0.057270834460460655,0.330799740692842,-0.941933437371346,1.0,0.0,0.0,0.0,1.0,0.0,0.0,0.0,1.0,0.09603391587734222,-0.0803026482462883,0.02682424895465375,1.2184696791468346e-07,0.0,0.0,0.0,1.2184696791468346e-07,0.0,0.0,0.0,1.2184696791468346e-07,0.7453054,0.8727918500000011,9.4536106,8.999999999999999e-08,0.0,0.0,0.0,8.999999999999999e-08,0.0,0.0,0.0,8.999999999999999e-08
1729690901.967868,1722,1729690901,966666560,base_link,-0.010174575573988808,0.05616656100371663,0.33114034290256683,-0.9418534221094467,1.0,0.0,0.0,0.0,1.0,0.0,0.0,0.0,1.0,0.12839879095554352,0.04652178660035133,-0.04320724308490754,1.2184696791468346e-07,0.0,0.0,0.0,1.2184696791468346e-07,0.0,0.0,0.0,1.2184696791468346e-07,0.51975245,0.45110590000000117,9.54187045,8.999999999999999e-08,0.0,0.0,0.0,8.999999999999999e-08,0.0,0.0,0.0,8.999999999999999e-08
1729690902.0669253,1723,1729690902,65662720,base_link,-0.010403327338954755,0.05671867729504126,0.3309542028862322,-0.9418832613536128,1.0,0.0,0.0,0.0,1.0,0.0,0.0,0.0,1.0,-0.12143319845199585,-0.0017307586967945047,0.0424891896545887,1.2184696791468346e-07,0.0,0.0,0.0,1.2184696791468346e-07,0.0,0.0,0.0,1.2184696791468346e-07,0.392266,1.1571847000000013,10.0420096,8.999999999999999e-08,0.0,0.0,0.0,8.999999999999999e-08,0.0,0.0,0.0,8.999999999999999e-08
1729690902.1683652,1724,1729690902,166658624,base_link,-0.00916038489234428,0.0574185838169815,0.329724161801472,-0.9422850793180337,1.0,0.0,0.0,0.0,1.0,0.0,0.0,0.0,1.0,-0.02071496471762657,0.07576411962509155,0.0225596074014902,1.2184696791468346e-07,0.0,0.0,0.0,1.2184696791468346e-07,0.0,0.0,0.0,1.2184696791468346e-07,0.4118793,0.7060788000000012,9.8262633,8.999999999999999e-08,0.0,0.0,0.0,8.999999999999999e-08,0.0,0.0,0.0,8.999999999999999e-08
1729690902.2700882,1725,1729690902,266652736,base_link,-0.008705076279581366,0.05484761934205243,0.32965977730374874,-0.9424650611707146,1.0,0.0,0.0,0.0,1.0,0.0,0.0,0.0,1.0,-0.33240193128585815,-0.013624443672597415,-0.05685921758413315,1.2184696791468346e-07,0.0,0.0,0.0,1.2184696791468346e-07,0.0,0.0,0.0,1.2184696791468346e-07,0.42168595,0.5883990000000012,10.38524235,8.999999999999999e-08,0.0,0.0,0.0,8.999999999999999e-08,0.0,0.0,0.0,8.999999999999999e-08
1729690902.3679314,1726,1729690902,366647872,base_link,-0.009097080292274714,0.05358942244510688,0.3316461306001187,-0.9418366424121141,1.0,0.0,0.0,0.0,1.0,0.0,0.0,0.0,1.0,0.03533610329031944,0.07294243574142456,0.0012002205476164729,1.2184696791468346e-07,0.0,0.0,0.0,1.2184696791468346e-07,0.0,0.0,0.0,1.2184696791468346e-07,0.36284605000000003,0.41187930000000117,9.6497436,8.999999999999999e-08,0.0,0.0,0.0,8.999999999999999e-08,0.0,0.0,0.0,8.999999999999999e-08
1729690902.467989,1727,1729690902,466644544,base_link,-0.00827400549847108,0.05220676932242905,0.3325210794719532,-0.9416133632105765,1.0,0.0,0.0,0.0,1.0,0.0,0.0,0.0,1.0,0.005526458378881216,-0.029382467269897457,0.015278705395758155,1.2184696791468346e-07,0.0,0.0,0.0,1.2184696791468346e-07,0.0,0.0,0.0,1.2184696791468346e-07,0.46091255,0.8041453000000013,9.93413645,8.999999999999999e-08,0.0,0.0,0.0,8.999999999999999e-08,0.0,0.0,0.0,8.999999999999999e-08
1729690902.5665107,1728,1729690902,564638400,base_link,-0.007212024709354273,0.05099958254012681,0.33448634776942593,-0.9409919831944347,1.0,0.0,0.0,0.0,1.0,0.0,0.0,0.0,1.0,-0.04145365208387375,-0.05515364557504655,-0.08986356854438782,1.2184696791468346e-07,0.0,0.0,0.0,1.2184696791468346e-07,0.0,0.0,0.0,1.2184696791468346e-07,0.48052585000000003,0.6962721500000013,10.11065615,8.999999999999999e-08,0.0,0.0,0.0,8.999999999999999e-08,0.0,0.0,0.0,8.999999999999999e-08
1729690902.6680398,1729,1729690902,666627392,base_link,-0.004575697128914666,0.047511838286971704,0.3364725898329147,-0.9404827933085793,1.0,0.0,0.0,0.0,1.0,0.0,0.0,0.0,1.0,0.14442679286003113,0.12653842568397522,0.02458083815872668,1.2184696791468346e-07,0.0,0.0,0.0,1.2184696791468346e-07,0.0,0.0,0.0,1.2184696791468346e-07,0.6276256,0.7943386500000013,9.7085835,8.999999999999999e-08,0.0,0.0,0.0,8.999999999999999e-08,0.0,0.0,0.0,8.999999999999999e-08
1729690902.7700105,1730,1729690902,768625344,base_link,-0.004267767374427116,0.04812464148526454,0.3368241001676862,-0.9403272465422773,1.0,0.0,0.0,0.0,1.0,0.0,0.0,0.0,1.0,-0.08322924375534058,-0.08381778746843338,-0.054712675511837,1.2184696791468346e-07,0.0,0.0,0.0,1.2184696791468346e-07,0.0,0.0,0.0,1.2184696791468346e-07,0.3530394,0.45110590000000117,9.62032365,8.999999999999999e-08,0.0,0.0,0.0,8.999999999999999e-08,0.0,0.0,0.0,8.999999999999999e-08
1729690902.8672266,1731,1729690902,865618432,base_link,-0.0018414040890437204,0.04544958315308272,0.33637155947753944,-0.940630171000718,1.0,0.0,0.0,0.0,1.0,0.0,0.0,0.0,1.0,-0.03787114843726158,-0.03717631101608276,0.03831767290830613,1.2184696791468346e-07,0.0,0.0,0.0,1.2184696791468346e-07,0.0,0.0,0.0,1.2184696791468346e-07,0.5099458,1.0493115500000012,9.60071035,8.999999999999999e-08,0.0,0.0,0.0,8.999999999999999e-08,0.0,0.0,0.0,8.999999999999999e-08
1729690902.9672773,1732,1729690902,966612032,base_link,-0.004535184323228944,0.04401702334803178,0.3348793604612965,-0.9412214126844789,1.0,0.0,0.0,0.0,1.0,0.0,0.0,0.0,1.0,0.19289669394493103,0.043084770441055305,0.07216637581586838,1.2184696791468346e-07,0.0,0.0,0.0,1.2184696791468346e-07,0.0,0.0,0.0,1.2184696791468346e-07,0.5491724,0.7256921000000013,10.05181625,8.999999999999999e-08,0.0,0.0,0.0,8.999999999999999e-08,0.0,0.0,0.0,8.999999999999999e-08
1729690903.067318,1733,1729690903,65605376,base_link,-0.004950400005968104,0.04507478671200277,0.3335771724970019,-0.9416315771741905,1.0,0.0,0.0,0.0,1.0,0.0,0.0,0.0,1.0,-0.2597477436065674,0.06668046116828918,-0.0532880760729313,1.2184696791468346e-07,0.0,0.0,0.0,1.2184696791468346e-07,0.0,0.0,0.0,1.2184696791468346e-07,0.1176798,0.7453054000000012,10.34601575,8.999999999999999e-08,0.0,0.0,0.0,8.999999999999999e-08,0.0,0.0,0.0,8.999999999999999e-08
1729690903.16704,1734,1729690903,165600000,base_link,-0.007674502021800913,0.0464417630685021,0.33141045376738787,-0.9423117190163246,1.0,0.0,0.0,0.0,1.0,0.0,0.0,0.0,1.0,-0.2847955822944641,-0.20468662679195404,-0.02544169500470159,1.2184696791468346e-07,0.0,0.0,0.0,1.2184696791468346e-07,0.0,0.0,0.0,1.2184696791468346e-07,0.61781895,1.0198916000000013,9.75761675,8.999999999999999e-08,0.0,0.0,0.0,8.999999999999999e-08,0.0,0.0,0.0,8.999999999999999e-08
1729690903.2672224,1735,1729690903,265596160,base_link,-0.008960207271700016,0.04687595716645193,0.3321908766685147,-0.9420040237618844,1.0,0.0,0.0,0.0,1.0,0.0,0.0,0.0,1.0,0.05136002600193024,0.07703305780887604,-0.0376771204173565,1.2184696791468346e-07,0.0,0.0,0.0,1.2184696791468346e-07,0.0,0.0,0.0,1.2184696791468346e-07,0.4903325,0.6766588500000011,9.463417250000001,8.999999999999999e-08,0.0,0.0,0.0,8.999999999999999e-08,0.0,0.0,0.0,8.999999999999999e-08
1729690903.367446,1736,1729690903,365589504,base_link,-0.010063936452570104,0.047019323845859225,0.3327608347694635,-0.9417845439439353,1.0,0.0,0.0,0.0,1.0,0.0,0.0,0.0,1.0,-0.022572852671146393,-0.06232139468193055,-0.0421132780611515,1.2184696791468346e-07,0.0,0.0,0.0,1.2184696791468346e-07,0.0,0.0,0.0,1.2184696791468346e-07,0.7060788,0.6962721500000013,10.002783,8.999999999999999e-08,0.0,0.0,0.0,8.999999999999999e-08,0.0,0.0,0.0,8.999999999999999e-08
1729690903.4663563,1737,1729690903,465582592,base_link,-0.010870111595061982,0.04819083879023969,0.331968971980187,-0.9419957990208989,1.0,0.0,0.0,0.0,1.0,0.0,0.0,0.0,1.0,0.07878999412059784,-0.09884938597679138,0.02384735457599164,1.2184696791468346e-07,0.0,0.0,0.0,1.2184696791468346e-07,0.0,0.0,0.0,1.2184696791468346e-07,0.7453054,1.0787315000000013,9.67916355,8.999999999999999e-08,0.0,0.0,0.0,8.999999999999999e-08,0.0,0.0,0.0,8.999999999999999e-08
1729690903.5676575,1738,1729690903,565577728,base_link,-0.010619853839875822,0.04873813947017613,0.33245271829417133,-0.9417998739457452,1.0,0.0,0.0,0.0,1.0,0.0,0.0,0.0,1.0,0.11239932477474213,0.00560439191758632,-0.0561823770403862,1.2184696791468346e-07,0.0,0.0,0.0,1.2184696791468346e-07,0.0,0.0,0.0,1.2184696791468346e-07,0.2353596,0.4805258500000012,9.95374975,8.999999999999999e-08,0.0,0.0,0.0,8.999999999999999e-08,0.0,0.0,0.0,8.999999999999999e-08
1729690903.6673195,1739,1729690903,665571840,base_link,-0.010837809424236617,0.04932508748880033,0.33176057445068996,-0.9420108804420754,1.0,0.0,0.0,0.0,1.0,0.0,0.0,0.0,1.0,-0.1449802666902542,-0.08575857430696487,-0.019674081355333318,1.2184696791468346e-07,0.0,0.0,0.0,1.2184696791468346e-07,0.0,0.0,0.0,1.2184696791468346e-07,0.46091255,0.9120184500000013,10.002783,8.999999999999999e-08,0.0,0.0,0.0,8.999999999999999e-08,0.0,0.0,0.0,8.999999999999999e-08
1729690903.7661715,1740,1729690903,764568000,base_link,-0.011127816094705966,0.049031406578105716,0.33099100768092665,-0.9422935029555811,1.0,0.0,0.0,0.0,1.0,0.0,0.0,0.0,1.0,0.07244817167520523,0.0650661736726761,0.09892766177654265,1.2184696791468346e-07,0.0,0.0,0.0,1.2184696791468346e-07,0.0,0.0,0.0,1.2184696791468346e-07,0.5295591,0.6080123000000012,9.4732239,8.999999999999999e-08,0.0,0.0,0.0,8.999999999999999e-08,0.0,0.0,0.0,8.999999999999999e-08
1729690903.8667483,1741,1729690903,865565696,base_link,-0.011605279511319152,0.049035903093161394,0.32825987101866927,-0.9432424156992247,1.0,0.0,0.0,0.0,1.0,0.0,0.0,0.0,1.0,0.07036793977022171,-0.01788897439837455,0.05410159006714821,1.2184696791468346e-07,0.0,0.0,0.0,1.2184696791468346e-07,0.0,0.0,0.0,1.2184696791468346e-07,0.3726527,0.4903325000000013,10.1400761,8.999999999999999e-08,0.0,0.0,0.0,8.999999999999999e-08,0.0,0.0,0.0,8.999999999999999e-08
1729690903.9676404,1742,1729690903,965560832,base_link,-0.01383235084567048,0.049065120211731816,0.32553645275161786,-0.9441542765769714,1.0,0.0,0.0,0.0,1.0,0.0,0.0,0.0,1.0,0.2330789864063263,-0.002964321523904789,0.09271907061338425,1.2184696791468346e-07,0.0,0.0,0.0,1.2184696791468346e-07,0.0,0.0,0.0,1.2184696791468346e-07,0.34323275,0.7943386500000013,10.28717585,8.999999999999999e-08,0.0,0.0,0.0,8.999999999999999e-08,0.0,0.0,0.0,8.999999999999999e-08
1729690904.067798,1743,1729690904,65554944,base_link,-0.012583727854468514,0.04650601319749222,0.3247114741967742,-0.9445852524016649,1.0,0.0,0.0,0.0,1.0,0.0,0.0,0.0,1.0,0.13232433795928955,-0.05178630352020263,0.030326390638947494,1.2184696791468346e-07,0.0,0.0,0.0,1.2184696791468346e-07,0.0,0.0,0.0,1.2184696791468346e-07,0.3334261,0.40207265000000125,10.22833595,8.999999999999999e-08,0.0,0.0,0.0,8.999999999999999e-08,0.0,0.0,0.0,8.999999999999999e-08
1729690904.1685152,1744,1729690904,167550592,base_link,-0.012097778013148078,0.04604744867253784,0.3233804798817449,-0.9450705484086079,1.0,0.0,0.0,0.0,1.0,0.0,0.0,0.0,1.0,0.21604564785957336,0.11735862493515015,0.052789699286222444,1.2184696791468346e-07,0.0,0.0,0.0,1.2184696791468346e-07,0.0,0.0,0.0,1.2184696791468346e-07,0.38245935,0.7747253500000013,9.75761675,8.999999999999999e-08,0.0,0.0,0.0,8.999999999999999e-08,0.0,0.0,0.0,8.999999999999999e-08
1729690904.2652402,1745,1729690904,264545728,base_link,-0.007622144893877974,0.04498173394069393,0.32427344598398194,-0.9448625713555273,1.0,0.0,0.0,0.0,1.0,0.0,0.0,0.0,1.0,-0.03013855591416359,0.10381051898002625,-0.042162042111158385,1.2184696791468346e-07,0.0,0.0,0.0,1.2184696791468346e-07,0.0,0.0,0.0,1.2184696791468346e-07,0.1569064,0.7845320000000012,10.3165958,8.999999999999999e-08,0.0,0.0,0.0,8.999999999999999e-08,0.0,0.0,0.0,8.999999999999999e-08
1729690904.3666427,1746,1729690904,364541632,base_link,-0.008683961145580189,0.041356323067448776,0.3238846391287335,-0.9451523601502634,1.0,0.0,0.0,0.0,1.0,0.0,0.0,0.0,1.0,0.1857035607099533,0.07819533348083497,0.10530302673578261,1.2184696791468346e-07,0.0,0.0,0.0,1.2184696791468346e-07,0.0,0.0,0.0,1.2184696791468346e-07,0.36284605000000003,0.7649187000000013,9.9047165,8.999999999999999e-08,0.0,0.0,0.0,8.999999999999999e-08,0.0,0.0,0.0,8.999999999999999e-08
1729690904.4662926,1747,1729690904,464539072,base_link,-0.008624043365819659,0.04105552084467066,0.3213414005241923,-0.94603370679556,1.0,0.0,0.0,0.0,1.0,0.0,0.0,0.0,1.0,-0.13396473228931427,0.009418806061148643,-0.0023724543862044824,1.2184696791468346e-07,0.0,0.0,0.0,1.2184696791468346e-07,0.0,0.0,0.0,1.2184696791468346e-07,0.0980665,0.40207265000000125,10.1204628,8.999999999999999e-08,0.0,0.0,0.0,8.999999999999999e-08,0.0,0.0,0.0,8.999999999999999e-08
1729690904.5676067,1748,1729690904,566532928,base_link,-0.010494595756055224,0.03874033427542824,0.3186688262502392,-0.9470159603388106,1.0,0.0,0.0,0.0,1.0,0.0,0.0,0.0,1.0,-0.12351967394351959,0.09853760898113251,-0.0018926770426333072,1.2184696791468346e-07,0.0,0.0,0.0,1.2184696791468346e-07,0.0,0.0,0.0,1.2184696791468346e-07,0.5295591,0.6080123000000013,10.42446895,8.999999999999999e-08,0.0,0.0,0.0,8.999999999999999e-08,0.0,0.0,0.0,8.999999999999999e-08
1729690904.667527,1749,1729690904,666527040,base_link,-0.004968395404900889,0.037244011486431604,0.31806724848667106,-0.9473232943908945,1.0,0.0,0.0,0.0,1.0,0.0,0.0,0.0,1.0,-0.06159257888793945,-0.04522240161895752,-0.0008567529730498735,1.2184696791468346e-07,0.0,0.0,0.0,1.2184696791468346e-07,0.0,0.0,0.0,1.2184696791468346e-07,-0.06864655,0.7453054000000012,10.0812362,8.999999999999999e-08,0.0,0.0,0.0,8.999999999999999e-08,0.0,0.0,0.0,8.999999999999999e-08
1729690904.7734265,1750,1729690904,771520896,base_link,-0.003491974075263245,0.034426396951246614,0.3179076577468113,-0.9474900265733404,1.0,0.0,0.0,0.0,1.0,0.0,0.0,0.0,1.0,-0.052462417632341385,0.027869476005434993,0.03479259833693504,1.2184696791468346e-07,0.0,0.0,0.0,1.2184696791468346e-07,0.0,0.0,0.0,1.2184696791468346e-07,0.2745862,0.4216859500000012,9.73800345,8.999999999999999e-08,0.0,0.0,0.0,8.999999999999999e-08,0.0,0.0,0.0,8.999999999999999e-08
1729690904.872363,1751,1729690904,871517568,base_link,-0.005355349144369083,0.034214958142871114,0.31774237736943794,-0.9475444256067581,1.0,0.0,0.0,0.0,1.0,0.0,0.0,0.0,1.0,0.37321776151657104,0.13947582244873047,0.05286152288317679,1.2184696791468346e-07,0.0,0.0,0.0,1.2184696791468346e-07,0.0,0.0,0.0,1.2184696791468346e-07,0.2549729,0.3726527000000013,10.1596894,8.999999999999999e-08,0.0,0.0,0.0,8.999999999999999e-08,0.0,0.0,0.0,8.999999999999999e-08
1729690904.9722927,1752,1729690904,970510912,base_link,-0.0056920992090231295,0.03383937511705972,0.31882700962488736,-0.9471915511827232,1.0,0.0,0.0,0.0,1.0,0.0,0.0,0.0,1.0,0.1806597113609314,-0.06463406980037689,0.03673562780022622,1.2184696791468346e-07,0.0,0.0,0.0,1.2184696791468346e-07,0.0,0.0,0.0,1.2184696791468346e-07,0.4118793,0.8924051500000011,9.60071035,8.999999999999999e-08,0.0,0.0,0.0,8.999999999999999e-08,0.0,0.0,0.0,8.999999999999999e-08
1729690905.069714,1753,1729690905,67510912,base_link,-0.0030323416220301696,0.03385857556744163,0.32165364776714694,-0.9462469723295919,1.0,0.0,0.0,0.0,1.0,0.0,0.0,0.0,1.0,-0.13796529173851013,-0.027357842773199092,-0.09170933812856674,1.2184696791468346e-07,0.0,0.0,0.0,1.2184696791468346e-07,0.0,0.0,0.0,1.2184696791468346e-07,0.53936575,0.8924051500000011,9.6301303,8.999999999999999e-08,0.0,0.0,0.0,8.999999999999999e-08,0.0,0.0,0.0,8.999999999999999e-08
1729690905.1653912,1754,1729690905,164497600,base_link,-0.0032340898909058954,0.03544013403034788,0.3256724955576136,-0.9448126603722904,1.0,0.0,0.0,0.0,1.0,0.0,0.0,0.0,1.0,0.2595362067222595,0.047792207449674606,-0.02764017693698407,1.2184696791468346e-07,0.0,0.0,0.0,1.2184696791468346e-07,0.0,0.0,0.0,1.2184696791468346e-07,0.57859235,0.4805258500000012,9.8654899,8.999999999999999e-08,0.0,0.0,0.0,8.999999999999999e-08,0.0,0.0,0.0,8.999999999999999e-08
1729690905.2654083,1755,1729690905,264483520,base_link,-0.0031377203682333315,0.037744067391067594,0.330226375498528,-0.9431416017824549,1.0,0.0,0.0,0.0,1.0,0.0,0.0,0.0,1.0,-0.015200783498585224,0.003905359655618656,-0.09511698782444,1.2184696791468346e-07,0.0,0.0,0.0,1.2184696791468346e-07,0.0,0.0,0.0,1.2184696791468346e-07,0.3138128,0.2647795500000012,9.79684335,8.999999999999999e-08,0.0,0.0,0.0,8.999999999999999e-08,0.0,0.0,0.0,8.999999999999999e-08
1729690905.3653808,1756,1729690905,364470208,base_link,-0.004293999036890624,0.04093810905467148,0.32983204337280975,-0.9431418005601362,1.0,0.0,0.0,0.0,1.0,0.0,0.0,0.0,1.0,0.17454886436462402,-0.005566325969994063,0.04247593134641647,1.2184696791468346e-07,0.0,0.0,0.0,1.2184696791468346e-07,0.0,0.0,0.0,1.2184696791468346e-07,0.26477955,0.6374322500000013,10.01258965,8.999999999999999e-08,0.0,0.0,0.0,8.999999999999999e-08,0.0,0.0,0.0,8.999999999999999e-08
1729690905.4654021,1757,1729690905,464470208,base_link,-0.007956391800020926,0.0420974919078723,0.32615727513836534,-0.9443441792476448,1.0,0.0,0.0,0.0,1.0,0.0,0.0,0.0,1.0,0.015928469598293304,-0.12685711681842804,0.0709977373480797,1.2184696791468346e-07,0.0,0.0,0.0,1.2184696791468346e-07,0.0,0.0,0.0,1.2184696791468346e-07,0.6080123,0.7453054000000012,9.7870367,8.999999999999999e-08,0.0,0.0,0.0,8.999999999999999e-08,0.0,0.0,0.0,8.999999999999999e-08
1729690905.5654109,1758,1729690905,564470464,base_link,-0.011210842932308337,0.04170220802919374,0.32009985868455837,-0.9463991353104475,1.0,0.0,0.0,0.0,1.0,0.0,0.0,0.0,1.0,0.21354645490646362,0.11875395476818086,0.13540922105312345,1.2184696791468346e-07,0.0,0.0,0.0,1.2184696791468346e-07,0.0,0.0,0.0,1.2184696791468346e-07,0.2353596,0.3040061500000012,9.83606995,8.999999999999999e-08,0.0,0.0,0.0,8.999999999999999e-08,0.0,0.0,0.0,8.999999999999999e-08
1729690905.6689215,1759,1729690905,666464832,base_link,-0.011879246837617144,0.04232601498894819,0.31507830627322453,-0.948046967647554,1.0,0.0,0.0,0.0,1.0,0.0,0.0,0.0,1.0,0.1595797836780548,-0.12006093561649321,0.12548515200614932,1.2184696791468346e-07,0.0,0.0,0.0,1.2184696791468346e-07,0.0,0.0,0.0,1.2184696791468346e-07,0.22555295,0.3334261000000013,10.24794925,8.999999999999999e-08,0.0,0.0,0.0,8.999999999999999e-08,0.0,0.0,0.0,8.999999999999999e-08
1729690905.7726662,1760,1729690905,771462528,base_link,-0.006189158576094181,0.04461087126147099,0.31569106514509776,-0.94779254896257,1.0,0.0,0.0,0.0,1.0,0.0,0.0,0.0,1.0,-0.08333759754896164,-0.12950187921524048,-0.022811019793152792,1.2184696791468346e-07,0.0,0.0,0.0,1.2184696791468346e-07,0.0,0.0,0.0,1.2184696791468346e-07,0.24516625,0.3040061500000012,9.60071035,8.999999999999999e-08,0.0,0.0,0.0,8.999999999999999e-08,0.0,0.0,0.0,8.999999999999999e-08
1729690905.8678179,1761,1729690905,865459712,base_link,-0.0010505707334705506,0.04179546017120402,0.3202411672239393,-0.9464130338415994,1.0,0.0,0.0,0.0,1.0,0.0,0.0,0.0,1.0,-0.22512546181678772,-0.0545116998255253,-0.1157805547118187,1.2184696791468346e-07,0.0,0.0,0.0,1.2184696791468346e-07,0.0,0.0,0.0,1.2184696791468346e-07,0.3530394,0.49033250000000117,9.4732239,8.999999999999999e-08,0.0,0.0,0.0,8.999999999999999e-08,0.0,0.0,0.0,8.999999999999999e-08
1729690905.9676816,1762,1729690905,966454080,base_link,0.0001934795755236233,0.04180965387748509,0.32573333196437393,-0.944536771044773,1.0,0.0,0.0,0.0,1.0,0.0,0.0,0.0,1.0,0.22939303517341614,0.10326242446899413,-0.08662375062704088,1.2184696791468346e-07,0.0,0.0,0.0,1.2184696791468346e-07,0.0,0.0,0.0,1.2184696791468346e-07,0.36284605000000003,0.5099458000000012,10.01258965,8.999999999999999e-08,0.0,0.0,0.0,8.999999999999999e-08,0.0,0.0,0.0,8.999999999999999e-08
1729690906.0677366,1763,1729690906,65446400,base_link,-0.0016435724008977471,0.04195046441155869,0.32902112539533096,-0.9433888679908236,1.0,0.0,0.0,0.0,1.0,0.0,0.0,0.0,1.0,-0.11803638190031052,-0.03561805933713915,-0.1590624898672104,1.2184696791468346e-07,0.0,0.0,0.0,1.2184696791468346e-07,0.0,0.0,0.0,1.2184696791468346e-07,0.34323275,0.7060788000000012,10.198916,8.999999999999999e-08,0.0,0.0,0.0,8.999999999999999e-08,0.0,0.0,0.0,8.999999999999999e-08
1729690906.1679904,1764,1729690906,165439744,base_link,-0.004916929106864079,0.040400569281233985,0.33155670015006034,-0.9425570393326408,1.0,0.0,0.0,0.0,1.0,0.0,0.0,0.0,1.0,-0.2747325301170349,0.0005890280008315907,-0.10881125926971436,1.2184696791468346e-07,0.0,0.0,0.0,1.2184696791468346e-07,0.0,0.0,0.0,1.2184696791468346e-07,0.28439285000000003,0.9414384000000012,9.9831697,8.999999999999999e-08,0.0,0.0,0.0,8.999999999999999e-08,0.0,0.0,0.0,8.999999999999999e-08
1729690906.2675319,1765,1729690906,265435648,base_link,-0.008105951907746494,0.04129959915209954,0.3313018926994148,-0.9425856420226921,1.0,0.0,0.0,0.0,1.0,0.0,0.0,0.0,1.0,-0.2654169499874115,-0.10481896996498108,0.02713105455040933,1.2184696791468346e-07,0.0,0.0,0.0,1.2184696791468346e-07,0.0,0.0,0.0,1.2184696791468346e-07,0.26477955,0.45110590000000117,9.65955025,8.999999999999999e-08,0.0,0.0,0.0,8.999999999999999e-08,0.0,0.0,0.0,8.999999999999999e-08
1729690906.366931,1766,1729690906,365428480,base_link,-0.007383623128087312,0.044470070863837315,0.3294192166570636,-0.943107032422044,1.0,0.0,0.0,0.0,1.0,0.0,0.0,0.0,1.0,0.18954592943191528,0.0928102880716324,0.1268542855978012,1.2184696791468346e-07,0.0,0.0,0.0,1.2184696791468346e-07,0.0,0.0,0.0,1.2184696791468346e-07,0.2157463,0.7158854500000011,9.6301303,8.999999999999999e-08,0.0,0.0,0.0,8.999999999999999e-08,0.0,0.0,0.0,8.999999999999999e-08
1729690906.4668496,1767,1729690906,465422848,base_link,-0.0066844892628075085,0.04412343424558702,0.32921957385624084,-0.9431982359735338,1.0,0.0,0.0,0.0,1.0,0.0,0.0,0.0,1.0,0.032909467816352844,-0.010240531526505945,0.018620582297444344,1.2184696791468346e-07,0.0,0.0,0.0,1.2184696791468346e-07,0.0,0.0,0.0,1.2184696791468346e-07,0.4118793,0.20593965000000125,10.1204628,8.999999999999999e-08,0.0,0.0,0.0,8.999999999999999e-08,0.0,0.0,0.0,8.999999999999999e-08
1729690906.5671215,1768,1729690906,565417216,base_link,-0.003159606286302299,0.04587595216057588,0.32868092243688635,-0.9433208707155342,1.0,0.0,0.0,0.0,1.0,0.0,0.0,0.0,1.0,0.08350210636854172,0.09934215247631073,0.021731790155172334,1.2184696791468346e-07,0.0,0.0,0.0,1.2184696791468346e-07,0.0,0.0,0.0,1.2184696791468346e-07,0.1569064,0.5785923500000012,9.75761675,8.999999999999999e-08,0.0,0.0,0.0,8.999999999999999e-08,0.0,0.0,0.0,8.999999999999999e-08
1729690906.6666284,1769,1729690906,665406720,base_link,0.001925130921406623,0.04399593780225113,0.3277862712735816,-0.9437249661275247,1.0,0.0,0.0,0.0,1.0,0.0,0.0,0.0,1.0,-0.2906153202056885,-0.05650508776307106,0.00024235527962446904,1.2184696791468346e-07,0.0,0.0,0.0,1.2184696791468346e-07,0.0,0.0,0.0,1.2184696791468346e-07,0.3138128,0.5491724000000012,9.7870367,8.999999999999999e-08,0.0,0.0,0.0,8.999999999999999e-08,0.0,0.0,0.0,8.999999999999999e-08
1729690906.7701252,1770,1729690906,768404160,base_link,0.00276101077750796,0.04377067185618467,0.32454918064339294,-0.9448514880384361,1.0,0.0,0.0,0.0,1.0,0.0,0.0,0.0,1.0,-0.036824051290750504,0.01893558353185655,0.11099184304475784,1.2184696791468346e-07,0.0,0.0,0.0,1.2184696791468346e-07,0.0,0.0,0.0,1.2184696791468346e-07,0.30400615,0.6766588500000013,9.9243298,8.999999999999999e-08,0.0,0.0,0.0,8.999999999999999e-08,0.0,0.0,0.0,8.999999999999999e-08
1729690906.867019,1771,1729690906,865399040,base_link,0.004082640626339151,0.03993501416525428,0.3238610482682029,-0.9452526371842387,1.0,0.0,0.0,0.0,1.0,0.0,0.0,0.0,1.0,0.014924468472599983,0.13938544690608978,0.035778105258941637,1.2184696791468346e-07,0.0,0.0,0.0,1.2184696791468346e-07,0.0,0.0,0.0,1.2184696791468346e-07,0.2157463,0.2647795500000012,9.6889702,8.999999999999999e-08,0.0,0.0,0.0,8.999999999999999e-08,0.0,0.0,0.0,8.999999999999999e-08
1729690906.9680333,1772,1729690906,965393408,base_link,0.004249315847373375,0.04033219621248235,0.3234636914397058,-0.9453710898814843,1.0,0.0,0.0,0.0,1.0,0.0,0.0,0.0,1.0,0.19452349841594696,0.05629831179976463,0.026739321649074548,1.2184696791468346e-07,0.0,0.0,0.0,1.2184696791468346e-07,0.0,0.0,0.0,1.2184696791468346e-07,0.196133,0.3922660000000013,10.24794925,8.999999999999999e-08,0.0,0.0,0.0,8.999999999999999e-08,0.0,0.0,0.0,8.999999999999999e-08
1729690907.066693,1773,1729690907,64386496,base_link,0.001912788012476378,0.04273284743953837,0.32362629504416146,-0.9452175760890813,1.0,0.0,0.0,0.0,1.0,0.0,0.0,0.0,1.0,-0.09933660924434662,-0.18745240569114685,-0.07008200883865354,1.2184696791468346e-07,0.0,0.0,0.0,1.2184696791468346e-07,0.0,0.0,0.0,1.2184696791468346e-07,0.38245935,0.6962721500000013,10.091042850000001,8.999999999999999e-08,0.0,0.0,0.0,8.999999999999999e-08,0.0,0.0,0.0,8.999999999999999e-08
1729690907.1671264,1774,1729690907,165378304,base_link,0.0025499375504545083,0.04363692643305734,0.3242000382366904,-0.9449781223273337,1.0,0.0,0.0,0.0,1.0,0.0,0.0,0.0,1.0,-0.10773680359125137,0.07169223576784135,0.06308976560831069,1.2184696791468346e-07,0.0,0.0,0.0,1.2184696791468346e-07,0.0,0.0,0.0,1.2184696791468346e-07,0.4511059,0.48052585000000114,9.26728425,8.999999999999999e-08,0.0,0.0,0.0,8.999999999999999e-08,0.0,0.0,0.0,8.999999999999999e-08
1729690907.2658055,1775,1729690907,264373440,base_link,-0.0014524630515510197,0.04283229341188058,0.3212125753161045,-0.9460368737268956,1.0,0.0,0.0,0.0,1.0,0.0,0.0,0.0,1.0,0.3861328661441803,0.1259688585996628,0.1402887850999832,1.2184696791468346e-07,0.0,0.0,0.0,1.2184696791468346e-07,0.0,0.0,0.0,1.2184696791468346e-07,0.14709975,0.4609125500000012,9.71839015,8.999999999999999e-08,0.0,0.0,0.0,8.999999999999999e-08,0.0,0.0,0.0,8.999999999999999e-08
1729690907.3656955,1776,1729690907,364368064,base_link,-0.003465964280030651,0.041437299347432906,0.31930222231774735,-0.9467402115350064,1.0,0.0,0.0,0.0,1.0,0.0,0.0,0.0,1.0,0.1428014636039734,-0.0038185273297130966,0.07659119367599487,1.2184696791468346e-07,0.0,0.0,0.0,1.2184696791468346e-07,0.0,0.0,0.0,1.2184696791468346e-07,0.196133,0.4903325000000013,10.3165958,8.999999999999999e-08,0.0,0.0,0.0,8.999999999999999e-08,0.0,0.0,0.0,8.999999999999999e-08
1729690907.465695,1777,1729690907,464362688,base_link,-0.00842769992099444,0.039619423922684506,0.31876637837766464,-0.9469674076429788,1.0,0.0,0.0,0.0,1.0,0.0,0.0,0.0,1.0,0.018827807158231735,-0.025810293853282932,-0.017511883750557896,1.2184696791468346e-07,0.0,0.0,0.0,1.2184696791468346e-07,0.0,0.0,0.0,1.2184696791468346e-07,0.40207265000000003,0.31381280000000117,9.71839015,8.999999999999999e-08,0.0,0.0,0.0,8.999999999999999e-08,0.0,0.0,0.0,8.999999999999999e-08
1729690907.5726771,1778,1729690907,569358848,base_link,-0.00859529364701171,0.040782329437105865,0.3205920008127506,-0.9463000008177547,1.0,0.0,0.0,0.0,1.0,0.0,0.0,0.0,1.0,-0.048557814210653305,-0.14236687123775482,-0.0880402773618698,1.2184696791468346e-07,0.0,0.0,0.0,1.2184696791468346e-07,0.0,0.0,0.0,1.2184696791468346e-07,0.26477955,0.27458620000000117,9.80665,8.999999999999999e-08,0.0,0.0,0.0,8.999999999999999e-08,0.0,0.0,0.0,8.999999999999999e-08
1729690907.6679265,1779,1729690907,666352192,base_link,-0.004847679758705136,0.04096072766498183,0.3239435979027665,-0.9451768428013474,1.0,0.0,0.0,0.0,1.0,0.0,0.0,0.0,1.0,-0.152895987033844,-0.1003004163503647,-0.07521746307611464,1.2184696791468346e-07,0.0,0.0,0.0,1.2184696791468346e-07,0.0,0.0,0.0,1.2184696791468346e-07,0.3726527,0.49033250000000117,9.4928372,8.999999999999999e-08,0.0,0.0,0.0,8.999999999999999e-08,0.0,0.0,0.0,8.999999999999999e-08
1729690907.7658076,1780,1729690907,764348864,base_link,-0.001451719570873351,0.0429310527498298,0.3260139607836945,-0.9443885400587019,1.0,0.0,0.0,0.0,1.0,0.0,0.0,0.0,1.0,0.055043648928403854,-0.18885545432567596,0.01846105977892878,1.2184696791468346e-07,0.0,0.0,0.0,1.2184696791468346e-07,0.0,0.0,0.0,1.2184696791468346e-07,0.1765197,0.4216859500000012,9.7085835,8.999999999999999e-08,0.0,0.0,0.0,8.999999999999999e-08,0.0,0.0,0.0,8.999999999999999e-08
1729690907.8678806,1781,1729690907,866345024,base_link,0.003087452305826113,0.042029322638768594,0.3259333118013831,-0.944453005678402,1.0,0.0,0.0,0.0,1.0,0.0,0.0,0.0,1.0,0.25039905309677124,0.08886833488941193,0.029801104217767705,1.2184696791468346e-07,0.0,0.0,0.0,1.2184696791468346e-07,0.0,0.0,0.0,1.2184696791468346e-07,0.40207265000000003,0.4216859500000012,9.7478101,8.999999999999999e-08,0.0,0.0,0.0,8.999999999999999e-08,0.0,0.0,0.0,8.999999999999999e-08
1729690907.9678602,1782,1729690907,966342976,base_link,-0.0008078380848658816,0.04089052654382202,0.324221867077401,-0.9450965522873531,1.0,0.0,0.0,0.0,1.0,0.0,0.0,0.0,1.0,0.21518070995807648,0.035710312426090254,0.08729174733161926,1.2184696791468346e-07,0.0,0.0,0.0,1.2184696791468346e-07,0.0,0.0,0.0,1.2184696791468346e-07,0.34323275,0.5687857000000013,10.3165958,8.999999999999999e-08,0.0,0.0,0.0,8.999999999999999e-08,0.0,0.0,0.0,8.999999999999999e-08
1729690908.0680122,1783,1729690908,66330176,base_link,-0.0014832699915044035,0.041002078928384936,0.32259808975262055,-0.9456463937020239,1.0,0.0,0.0,0.0,1.0,0.0,0.0,0.0,1.0,0.21304963529109955,0.13426101207733154,0.07538679987192153,1.2184696791468346e-07,0.0,0.0,0.0,1.2184696791468346e-07,0.0,0.0,0.0,1.2184696791468346e-07,0.1765197,0.3138128000000013,10.2577559,8.999999999999999e-08,0.0,0.0,0.0,8.999999999999999e-08,0.0,0.0,0.0,8.999999999999999e-08
1729690908.1667335,1784,1729690908,165323520,base_link,0.001257243959829157,0.041720337890197544,0.32224197594850407,-0.9457367190083913,1.0,0.0,0.0,0.0,1.0,0.0,0.0,0.0,1.0,0.04280455410480499,-0.08544839173555374,0.04446872323751451,1.2184696791468346e-07,0.0,0.0,0.0,1.2184696791468346e-07,0.0,0.0,0.0,1.2184696791468346e-07,0.28439285000000003,0.8041453000000013,10.4538889,8.999999999999999e-08,0.0,0.0,0.0,8.999999999999999e-08,0.0,0.0,0.0,8.999999999999999e-08
1729690908.2668083,1785,1729690908,265316096,base_link,-0.0024164586971949214,0.041842581139927774,0.32267379729572954,-0.945581820716572,1.0,0.0,0.0,0.0,1.0,0.0,0.0,0.0,1.0,0.3938070833683014,0.05026987567543984,0.04898074641823768,1.2184696791468346e-07,0.0,0.0,0.0,1.2184696791468346e-07,0.0,0.0,0.0,1.2184696791468346e-07,0.28439285000000003,0.4609125500000012,9.65955025,8.999999999999999e-08,0.0,0.0,0.0,8.999999999999999e-08,0.0,0.0,0.0,8.999999999999999e-08
1729690908.3668292,1786,1729690908,365310720,base_link,-0.006175358421797393,0.04161406442370653,0.32501304671624637,-0.9447733347500473,1.0,0.0,0.0,0.0,1.0,0.0,0.0,0.0,1.0,0.11550366133451462,0.012543960474431513,-0.01727043092250824,1.2184696791468346e-07,0.0,0.0,0.0,1.2184696791468346e-07,0.0,0.0,0.0,1.2184696791468346e-07,0.30400615,0.11767980000000124,10.1204628,8.999999999999999e-08,0.0,0.0,0.0,8.999999999999999e-08,0.0,0.0,0.0,8.999999999999999e-08
1729690908.4668658,1787,1729690908,465304064,base_link,-0.0016132823553349305,0.04357438702669896,0.32671928851009274,-0.944115022987532,1.0,0.0,0.0,0.0,1.0,0.0,0.0,0.0,1.0,-0.012398741208016872,-0.1342141032218933,-0.06517982482910155,1.2184696791468346e-07,0.0,0.0,0.0,1.2184696791468346e-07,0.0,0.0,0.0,1.2184696791468346e-07,0.38245935,0.8727918500000013,9.9831697,8.999999999999999e-08,0.0,0.0,0.0,8.999999999999999e-08,0.0,0.0,0.0,8.999999999999999e-08
1729690908.5688276,1788,1729690908,567299200,base_link,-0.0016258539824069874,0.04380621625550041,0.3269019712563335,-0.9440410336446863,1.0,0.0,0.0,0.0,1.0,0.0,0.0,0.0,1.0,0.3487933576107025,0.0627434179186821,0.046609155833721154,1.2184696791468346e-07,0.0,0.0,0.0,1.2184696791468346e-07,0.0,0.0,0.0,1.2184696791468346e-07,0.5687857000000001,0.5785923500000012,9.414384,8.999999999999999e-08,0.0,0.0,0.0,8.999999999999999e-08,0.0,0.0,0.0,8.999999999999999e-08
1729690908.66696,1789,1729690908,665293568,base_link,-0.0033456029869619514,0.041220123732781194,0.32840618611334726,-0.9436307992337858,1.0,0.0,0.0,0.0,1.0,0.0,0.0,0.0,1.0,-0.12824314832687378,0.10862433910369873,-0.0488225817680359,1.2184696791468346e-07,0.0,0.0,0.0,1.2184696791468346e-07,0.0,0.0,0.0,1.2184696791468346e-07,0.20593965,0.46091255000000125,10.38524235,8.999999999999999e-08,0.0,0.0,0.0,8.999999999999999e-08,0.0,0.0,0.0,8.999999999999999e-08
1729690908.7668917,1790,1729690908,765288960,base_link,-0.0014191583476164762,0.04217328276106185,0.32812972009797625,-0.9436897196638119,1.0,0.0,0.0,0.0,1.0,0.0,0.0,0.0,1.0,-0.21859371662139893,-0.023910630494356162,-0.054092343896627426,1.2184696791468346e-07,0.0,0.0,0.0,1.2184696791468346e-07,0.0,0.0,0.0,1.2184696791468346e-07,0.2157463,0.34323275000000125,10.0812362,8.999999999999999e-08,0.0,0.0,0.0,8.999999999999999e-08,0.0,0.0,0.0,8.999999999999999e-08
1729690908.866907,1791,1729690908,865282560,base_link,-0.0006822805332904038,0.045638073889188675,0.32750672623652527,-0.9437457522949666,1.0,0.0,0.0,0.0,1.0,0.0,0.0,0.0,1.0,0.01667872443795204,0.07522668689489365,-0.053029868751764304,1.2184696791468346e-07,0.0,0.0,0.0,1.2184696791468346e-07,0.0,0.0,0.0,1.2184696791468346e-07,0.42168595,0.8727918500000013,9.9439431,8.999999999999999e-08,0.0,0.0,0.0,8.999999999999999e-08,0.0,0.0,0.0,8.999999999999999e-08
1729690908.9666886,1792,1729690908,964277952,base_link,-0.0037268904305023617,0.04705794518624663,0.3288384647027671,-0.9432056637947497,1.0,0.0,0.0,0.0,1.0,0.0,0.0,0.0,1.0,0.11262934654951096,-0.022919055074453357,-0.014716722071170803,1.2184696791468346e-07,0.0,0.0,0.0,1.2184696791468346e-07,0.0,0.0,0.0,1.2184696791468346e-07,0.588399,0.8139519500000013,10.1008495,8.999999999999999e-08,0.0,0.0,0.0,8.999999999999999e-08,0.0,0.0,0.0,8.999999999999999e-08
1729690909.075679,1793,1729690909,73274112,base_link,-0.003855258740576398,0.049041844033163536,0.32924985647427946,-0.9429605328567768,1.0,0.0,0.0,0.0,1.0,0.0,0.0,0.0,1.0,-0.10344098508358002,-0.18017400801181793,0.018248312175273916,1.2184696791468346e-07,0.0,0.0,0.0,1.2184696791468346e-07,0.0,0.0,0.0,1.2184696791468346e-07,0.6276256,0.9022118000000011,9.6693569,8.999999999999999e-08,0.0,0.0,0.0,8.999999999999999e-08,0.0,0.0,0.0,8.999999999999999e-08
1729690909.174747,1794,1729690909,172265408,base_link,-0.0016549274793579865,0.05038597919763803,0.32909987272714225,-0.9429484546285187,1.0,0.0,0.0,0.0,1.0,0.0,0.0,0.0,1.0,0.23907333612442017,0.10444802045822145,0.05745577812194823,1.2184696791468346e-07,0.0,0.0,0.0,1.2184696791468346e-07,0.0,0.0,0.0,1.2184696791468346e-07,0.2549729,0.5295591000000013,10.18910935,8.999999999999999e-08,0.0,0.0,0.0,8.999999999999999e-08,0.0,0.0,0.0,8.999999999999999e-08
1729690909.2757964,1795,1729690909,273261568,base_link,-0.0023990597998900264,0.04815913936647948,0.32999716646171207,-0.9427496019276793,1.0,0.0,0.0,0.0,1.0,0.0,0.0,0.0,1.0,-0.0005446575814858079,0.05121190473437308,-0.0861138179898262,1.2184696791468346e-07,0.0,0.0,0.0,1.2184696791468346e-07,0.0,0.0,0.0,1.2184696791468346e-07,0.6080123,0.5295591000000012,9.44380395,8.999999999999999e-08,0.0,0.0,0.0,8.999999999999999e-08,0.0,0.0,0.0,8.999999999999999e-08
1729690909.3732605,1796,1729690909,371255936,base_link,-0.0052557139911603625,0.046724755055693616,0.3314579849374403,-0.9422976063625761,1.0,0.0,0.0,0.0,1.0,0.0,0.0,0.0,1.0,-0.11970679461956024,-0.059431210160255446,-0.09855896979570387,1.2184696791468346e-07,0.0,0.0,0.0,1.2184696791468346e-07,0.0,0.0,0.0,1.2184696791468346e-07,0.51975245,0.7943386500000013,10.0223963,8.999999999999999e-08,0.0,0.0,0.0,8.999999999999999e-08,0.0,0.0,0.0,8.999999999999999e-08
1729690909.472028,1797,1729690909,469251072,base_link,-0.00618378780312757,0.046402805750156685,0.33298731383640756,-0.9417685433326666,1.0,0.0,0.0,0.0,1.0,0.0,0.0,0.0,1.0,0.08421314507722855,-0.13505548238754272,-0.013864266686141474,1.2184696791468346e-07,0.0,0.0,0.0,1.2184696791468346e-07,0.0,0.0,0.0,1.2184696791468346e-07,0.16671305,0.5687857000000013,9.9831697,8.999999999999999e-08,0.0,0.0,0.0,8.999999999999999e-08,0.0,0.0,0.0,8.999999999999999e-08
1729690909.5679548,1798,1729690909,565253120,base_link,-0.002748917017103522,0.046359480156606965,0.33355002058263195,-0.9415878216205686,1.0,0.0,0.0,0.0,1.0,0.0,0.0,0.0,1.0,-0.16708578169345856,0.003231974318623539,-0.030566640198230743,1.2184696791468346e-07,0.0,0.0,0.0,1.2184696791468346e-07,0.0,0.0,0.0,1.2184696791468346e-07,0.32361945000000003,0.44129925000000125,10.11065615,8.999999999999999e-08,0.0,0.0,0.0,8.999999999999999e-08,0.0,0.0,0.0,8.999999999999999e-08
1729690909.6677182,1799,1729690909,665241344,base_link,-0.003103346714861776,0.046237447730832375,0.332943194559631,-0.9418074627347852,1.0,0.0,0.0,0.0,1.0,0.0,0.0,0.0,1.0,0.1931389719247818,-0.04612418264150619,0.03829782828688622,1.2184696791468346e-07,0.0,0.0,0.0,1.2184696791468346e-07,0.0,0.0,0.0,1.2184696791468346e-07,0.34323275,0.5785923500000013,10.38524235,8.999999999999999e-08,0.0,0.0,0.0,8.999999999999999e-08,0.0,0.0,0.0,8.999999999999999e-08
1729690909.7689505,1800,1729690909,766234944,base_link,-0.004933752030724327,0.04713483466206333,0.33163269814751484,-0.9422174478174763,1.0,0.0,0.0,0.0,1.0,0.0,0.0,0.0,1.0,0.028327740728855133,-0.11650829762220383,0.022799566388130202,1.2184696791468346e-07,0.0,0.0,0.0,1.2184696791468346e-07,0.0,0.0,0.0,1.2184696791468346e-07,0.40207265000000003,0.4412992500000012,9.8654899,8.999999999999999e-08,0.0,0.0,0.0,8.999999999999999e-08,0.0,0.0,0.0,8.999999999999999e-08
1729690909.8676631,1801,1729690909,866234944,base_link,-0.006145747594835464,0.04520494240239669,0.3312278579314432,-0.9424472659512809,1.0,0.0,0.0,0.0,1.0,0.0,0.0,0.0,1.0,0.13814644515514374,0.13618090748786926,0.06185258552432059,1.2184696791468346e-07,0.0,0.0,0.0,1.2184696791468346e-07,0.0,0.0,0.0,1.2184696791468346e-07,0.5687857000000001,0.6570455500000011,9.24767095,8.999999999999999e-08,0.0,0.0,0.0,8.999999999999999e-08,0.0,0.0,0.0,8.999999999999999e-08
1729690909.9677467,1802,1729690909,965229056,base_link,-0.004099155899157771,0.04712845818134445,0.3310153003857752,-0.9424388448386869,1.0,0.0,0.0,0.0,1.0,0.0,0.0,0.0,1.0,-0.04107564315199852,-0.09918712079524994,0.014977434650063527,1.2184696791468346e-07,0.0,0.0,0.0,1.2184696791468346e-07,0.0,0.0,0.0,1.2184696791468346e-07,0.28439285000000003,0.5393657500000013,10.395049,8.999999999999999e-08,0.0,0.0,0.0,8.999999999999999e-08,0.0,0.0,0.0,8.999999999999999e-08
1729690910.0660465,1803,1729690910,65222912,base_link,-0.005191880481625713,0.048014591960652796,0.33123413229619275,-0.9423118342342437,1.0,0.0,0.0,0.0,1.0,0.0,0.0,0.0,1.0,0.2137632668018341,-0.09959211945533752,0.026651505380868926,1.2184696791468346e-07,0.0,0.0,0.0,1.2184696791468346e-07,0.0,0.0,0.0,1.2184696791468346e-07,0.5687857000000001,0.6276256000000012,9.87529655,8.999999999999999e-08,0.0,0.0,0.0,8.999999999999999e-08,0.0,0.0,0.0,8.999999999999999e-08
1729690910.1673126,1804,1729690910,165217536,base_link,-0.004720426371435395,0.05019116265275126,0.33273081569818,-0.9416733876728494,1.0,0.0,0.0,0.0,1.0,0.0,0.0,0.0,1.0,0.14124847948551178,0.04421688616275787,-0.03376570716500283,1.2184696791468346e-07,0.0,0.0,0.0,1.2184696791468346e-07,0.0,0.0,0.0,1.2184696791468346e-07,0.28439285000000003,0.34323275000000125,10.0812362,8.999999999999999e-08,0.0,0.0,0.0,8.999999999999999e-08,0.0,0.0,0.0,8.999999999999999e-08
1729690910.2662873,1805,1729690910,265212160,base_link,-0.005030107787750953,0.0506763058551121,0.332794106399076,-0.9416234347054895,1.0,0.0,0.0,0.0,1.0,0.0,0.0,0.0,1.0,0.06437300145626068,0.08265373110771179,0.0045357081107795134,1.2184696791468346e-07,0.0,0.0,0.0,1.2184696791468346e-07,0.0,0.0,0.0,1.2184696791468346e-07,0.42168595,0.41187930000000117,9.8262633,8.999999999999999e-08,0.0,0.0,0.0,8.999999999999999e-08,0.0,0.0,0.0,8.999999999999999e-08
1729690910.3661518,1806,1729690910,365206528,base_link,-0.010949915691704342,0.05168662911985635,0.3324081776253915,-0.9416546050247603,1.0,0.0,0.0,0.0,1.0,0.0,0.0,0.0,1.0,0.22270242869853973,0.011545359157025812,-0.017221515998244286,1.2184696791468346e-07,0.0,0.0,0.0,1.2184696791468346e-07,0.0,0.0,0.0,1.2184696791468346e-07,0.6080123,0.6766588500000013,10.13026945,8.999999999999999e-08,0.0,0.0,0.0,8.999999999999999e-08,0.0,0.0,0.0,8.999999999999999e-08
1729690910.4685311,1807,1729690910,465199872,base_link,-0.014125134778258516,0.04994345803443178,0.33318828409030593,-0.9414306660142406,1.0,0.0,0.0,0.0,1.0,0.0,0.0,0.0,1.0,0.33033257722854614,0.1124461367726326,-0.0018465304747223993,1.2184696791468346e-07,0.0,0.0,0.0,1.2184696791468346e-07,0.0,0.0,0.0,1.2184696791468346e-07,0.59820565,0.6276256000000012,9.77723005,8.999999999999999e-08,0.0,0.0,0.0,8.999999999999999e-08,0.0,0.0,0.0,8.999999999999999e-08
1729690910.5666943,1808,1729690910,564192704,base_link,-0.012452716808746728,0.05019794235060411,0.3346376617761625,-0.9409265283478989,1.0,0.0,0.0,0.0,1.0,0.0,0.0,0.0,1.0,-0.19773587584495544,-0.08493716269731523,-0.07982058823108672,1.2184696791468346e-07,0.0,0.0,0.0,1.2184696791468346e-07,0.0,0.0,0.0,1.2184696791468346e-07,0.2745862,0.7943386500000013,10.3754357,8.999999999999999e-08,0.0,0.0,0.0,8.999999999999999e-08,0.0,0.0,0.0,8.999999999999999e-08
1729690910.665164,1809,1729690910,664187072,base_link,-0.011816508235653129,0.048630601617176354,0.33537038757549675,-0.9407561521759662,1.0,0.0,0.0,0.0,1.0,0.0,0.0,0.0,1.0,-0.270692378282547,-0.023792348802089688,0.04228577762842178,1.2184696791468346e-07,0.0,0.0,0.0,1.2184696791468346e-07,0.0,0.0,0.0,1.2184696791468346e-07,0.4903325,0.8924051500000011,9.5712904,8.999999999999999e-08,0.0,0.0,0.0,8.999999999999999e-08,0.0,0.0,0.0,8.999999999999999e-08
1729690910.7663722,1810,1729690910,765181440,base_link,-0.010269517501402614,0.04978497428145633,0.3327106415677212,-0.9416579115229047,1.0,0.0,0.0,0.0,1.0,0.0,0.0,0.0,1.0,0.13732261955738068,0.09117811918258668,0.11620681732892989,1.2184696791468346e-07,0.0,0.0,0.0,1.2184696791468346e-07,0.0,0.0,0.0,1.2184696791468346e-07,0.2941995,0.47071920000000117,9.95374975,8.999999999999999e-08,0.0,0.0,0.0,8.999999999999999e-08,0.0,0.0,0.0,8.999999999999999e-08
1729690910.8663766,1811,1729690910,864174784,base_link,-0.009404800889479469,0.05227150505304282,0.329755264738241,-0.942571326137779,1.0,0.0,0.0,0.0,1.0,0.0,0.0,0.0,1.0,0.15567608177661896,0.015504756011068826,0.04761124402284622,1.2184696791468346e-07,0.0,0.0,0.0,1.2184696791468346e-07,0.0,0.0,0.0,1.2184696791468346e-07,0.46091255,0.45110590000000134,10.6500219,8.999999999999999e-08,0.0,0.0,0.0,8.999999999999999e-08,0.0,0.0,0.0,8.999999999999999e-08
1729690910.9738522,1812,1729690910,969173760,base_link,-0.0053292531285169305,0.050674069138778886,0.3282440264223372,-0.9432176826671892,1.0,0.0,0.0,0.0,1.0,0.0,0.0,0.0,1.0,0.047623373568058014,0.10823333263397217,0.029116950929164873,1.2184696791468346e-07,0.0,0.0,0.0,1.2184696791468346e-07,0.0,0.0,0.0,1.2184696791468346e-07,0.59820565,0.7354987500000013,10.002783,8.999999999999999e-08,0.0,0.0,0.0,8.999999999999999e-08,0.0,0.0,0.0,8.999999999999999e-08
1729690911.0652165,1813,1729690911,64170176,base_link,-0.005392935885164868,0.050665725462617224,0.3283020912399653,-0.9431975601078232,1.0,0.0,0.0,0.0,1.0,0.0,0.0,0.0,1.0,0.19090640544891357,0.085622638463974,0.04772069305181502,1.2184696791468346e-07,0.0,0.0,0.0,1.2184696791468346e-07,0.0,0.0,0.0,1.2184696791468346e-07,0.0196133,0.38245935000000125,10.091042850000001,8.999999999999999e-08,0.0,0.0,0.0,8.999999999999999e-08,0.0,0.0,0.0,8.999999999999999e-08
1729690911.1662173,1814,1729690911,164168384,base_link,-0.0040190409232726074,0.05077428067006283,0.3293635869898558,-0.9428284294067879,1.0,0.0,0.0,0.0,1.0,0.0,0.0,0.0,1.0,0.21082495152950287,-0.11095582693815231,0.02482973784208299,1.2184696791468346e-07,0.0,0.0,0.0,1.2184696791468346e-07,0.0,0.0,0.0,1.2184696791468346e-07,0.392266,0.5491724000000012,10.2773692,8.999999999999999e-08,0.0,0.0,0.0,8.999999999999999e-08,0.0,0.0,0.0,8.999999999999999e-08
1729690911.265156,1815,1729690911,264165568,base_link,-0.005587198169385367,0.04977282270022609,0.329397907861344,-0.9428618497073883,1.0,0.0,0.0,0.0,1.0,0.0,0.0,0.0,1.0,0.3648107349872589,0.02069423161447049,0.051669154316186905,1.2184696791468346e-07,0.0,0.0,0.0,1.2184696791468346e-07,0.0,0.0,0.0,1.2184696791468346e-07,0.48052585000000003,0.5785923500000012,9.5712904,8.999999999999999e-08,0.0,0.0,0.0,8.999999999999999e-08,0.0,0.0,0.0,8.999999999999999e-08
1729690911.3652008,1816,1729690911,364157632,base_link,-0.006640335361577923,0.050109900637267994,0.32914211681859,-0.9429264927557114,1.0,0.0,0.0,0.0,1.0,0.0,0.0,0.0,1.0,-0.4035728871822357,0.09333292394876479,-0.10654263198375703,1.2184696791468346e-07,0.0,0.0,0.0,1.2184696791468346e-07,0.0,0.0,0.0,1.2184696791468346e-07,0.10787315,0.46091255000000125,10.3754357,8.999999999999999e-08,0.0,0.0,0.0,8.999999999999999e-08,0.0,0.0,0.0,8.999999999999999e-08
1729690911.4652221,1817,1729690911,464155328,base_link,-0.003169727718407673,0.046581490454309885,0.32893266158675016,-0.9431985059968568,1.0,0.0,0.0,0.0,1.0,0.0,0.0,0.0,1.0,-0.3043533265590668,-0.13369794189929962,-0.044361878186464296,1.2184696791468346e-07,0.0,0.0,0.0,1.2184696791468346e-07,0.0,0.0,0.0,1.2184696791468346e-07,0.6080123,1.2454445500000013,10.14988275,8.999999999999999e-08,0.0,0.0,0.0,8.999999999999999e-08,0.0,0.0,0.0,8.999999999999999e-08
1729690911.5671554,1818,1729690911,566151488,base_link,-0.007734268394802008,0.043789109078746266,0.3292902432567767,-0.943181122963336,1.0,0.0,0.0,0.0,1.0,0.0,0.0,0.0,1.0,0.006908922456204891,0.237129807472229,0.030415534973144503,1.2184696791468346e-07,0.0,0.0,0.0,1.2184696791468346e-07,0.0,0.0,0.0,1.2184696791468346e-07,0.5295591,0.4216859500000012,9.56148375,8.999999999999999e-08,0.0,0.0,0.0,8.999999999999999e-08,0.0,0.0,0.0,8.999999999999999e-08
1729690911.6671734,1819,1729690911,665144576,base_link,-0.007251370678282529,0.043337391375038496,0.328380016730525,-0.9435231066296963,1.0,0.0,0.0,0.0,1.0,0.0,0.0,0.0,1.0,-0.12989403307437897,0.09384646266698837,0.028072239831089963,1.2184696791468346e-07,0.0,0.0,0.0,1.2184696791468346e-07,0.0,0.0,0.0,1.2184696791468346e-07,0.4314926,0.8237586000000012,10.2969825,8.999999999999999e-08,0.0,0.0,0.0,8.999999999999999e-08,0.0,0.0,0.0,8.999999999999999e-08
1729690911.7672646,1820,1729690911,766139456,base_link,-0.005939914013944893,0.04512256719497105,0.32610137631662356,-0.9442386158782355,1.0,0.0,0.0,0.0,1.0,0.0,0.0,0.0,1.0,-0.023174356669187546,0.03241568058729172,0.026321288198232647,1.2184696791468346e-07,0.0,0.0,0.0,1.2184696791468346e-07,0.0,0.0,0.0,1.2184696791468346e-07,0.392266,0.8237586000000012,10.0223963,8.999999999999999e-08,0.0,0.0,0.0,8.999999999999999e-08,0.0,0.0,0.0,8.999999999999999e-08
1729690911.866331,1821,1729690911,865137408,base_link,-0.007607288184296167,0.04469930601843836,0.3259206797900104,-0.9443091716663397,1.0,0.0,0.0,0.0,1.0,0.0,0.0,0.0,1.0,0.038568343967199326,-0.06524257361888885,-0.04096901416778564,1.2184696791468346e-07,0.0,0.0,0.0,1.2184696791468346e-07,0.0,0.0,0.0,1.2184696791468346e-07,0.6276256,0.7943386500000013,9.9439431,8.999999999999999e-08,0.0,0.0,0.0,8.999999999999999e-08,0.0,0.0,0.0,8.999999999999999e-08
1729690911.967271,1822,1729690911,966133568,base_link,-0.006124591488572846,0.04506051990545815,0.327913357217525,-0.9436126689925692,1.0,0.0,0.0,0.0,1.0,0.0,0.0,0.0,1.0,-0.010548913851380348,-0.05213887989521027,-0.03358665481209754,1.2184696791468346e-07,0.0,0.0,0.0,1.2184696791468346e-07,0.0,0.0,0.0,1.2184696791468346e-07,0.44129925000000003,0.7256921000000013,9.7478101,8.999999999999999e-08,0.0,0.0,0.0,8.999999999999999e-08,0.0,0.0,0.0,8.999999999999999e-08
1729690912.0663595,1823,1729690912,65127168,base_link,-0.0027738585716220476,0.045408757504301824,0.332879761476191,-0.9418712305034559,1.0,0.0,0.0,0.0,1.0,0.0,0.0,0.0,1.0,0.18302606046199799,0.10625231266021727,-0.05689614266157152,1.2184696791468346e-07,0.0,0.0,0.0,1.2184696791468346e-07,0.0,0.0,0.0,1.2184696791468346e-07,0.196133,0.3824593500000012,9.5909037,8.999999999999999e-08,0.0,0.0,0.0,8.999999999999999e-08,0.0,0.0,0.0,8.999999999999999e-08
1729690912.168272,1824,1729690912,165123072,base_link,-0.001058226628340728,0.0468979575765805,0.3375474453001478,-0.9401389173430126,1.0,0.0,0.0,0.0,1.0,0.0,0.0,0.0,1.0,0.015028017573058605,-0.12096290290355684,-0.13086482882499692,1.2184696791468346e-07,0.0,0.0,0.0,1.2184696791468346e-07,0.0,0.0,0.0,1.2184696791468346e-07,0.51975245,0.8335652500000013,10.48330885,8.999999999999999e-08,0.0,0.0,0.0,8.999999999999999e-08,0.0,0.0,0.0,8.999999999999999e-08
1729690912.266398,1825,1729690912,265117952,base_link,-0.00487221450536044,0.049088389498693215,0.3368641515486248,-0.9402601421647434,1.0,0.0,0.0,0.0,1.0,0.0,0.0,0.0,1.0,0.27486398816108704,0.12686219811439514,0.04835584014654158,1.2184696791468346e-07,0.0,0.0,0.0,1.2184696791468346e-07,0.0,0.0,0.0,1.2184696791468346e-07,0.5099458,0.7256921000000012,9.2378643,8.999999999999999e-08,0.0,0.0,0.0,8.999999999999999e-08,0.0,0.0,0.0,8.999999999999999e-08
1729690912.3663697,1826,1729690912,365113088,base_link,-0.003029357864143696,0.05070546912321438,0.3341956944267357,-0.9411338991974296,1.0,0.0,0.0,0.0,1.0,0.0,0.0,0.0,1.0,0.06965463608503342,-0.09961760044097899,0.06008101254701616,1.2184696791468346e-07,0.0,0.0,0.0,1.2184696791468346e-07,0.0,0.0,0.0,1.2184696791468346e-07,0.48052585000000003,1.1571847000000013,10.0812362,8.999999999999999e-08,0.0,0.0,0.0,8.999999999999999e-08,0.0,0.0,0.0,8.999999999999999e-08
1729690912.4663863,1827,1729690912,465109504,base_link,-0.005700146048478716,0.052509036919941146,0.33201772236065097,-0.9417932583190494,1.0,0.0,0.0,0.0,1.0,0.0,0.0,0.0,1.0,-0.17134718596935272,-0.14533482491970062,-0.04627418145537374,1.2184696791468346e-07,0.0,0.0,0.0,1.2184696791468346e-07,0.0,0.0,0.0,1.2184696791468346e-07,0.75511205,0.6962721500000011,9.610517,8.999999999999999e-08,0.0,0.0,0.0,8.999999999999999e-08,0.0,0.0,0.0,8.999999999999999e-08
1729690912.5694873,1828,1729690912,567104640,base_link,-0.007795347128106039,0.053327604578270314,0.3312185924221561,-0.9420136109350976,1.0,0.0,0.0,0.0,1.0,0.0,0.0,0.0,1.0,0.11103580892086029,0.06379591673612595,-0.016777353361248977,1.2184696791468346e-07,0.0,0.0,0.0,1.2184696791468346e-07,0.0,0.0,0.0,1.2184696791468346e-07,0.48052585000000003,0.6864655000000012,9.1986377,8.999999999999999e-08,0.0,0.0,0.0,8.999999999999999e-08,0.0,0.0,0.0,8.999999999999999e-08
1729690912.6664555,1829,1729690912,665098240,base_link,-0.008932749863760135,0.05202652997214149,0.3293762119825391,-0.9427219935585267,1.0,0.0,0.0,0.0,1.0,0.0,0.0,0.0,1.0,0.10006991028785706,0.1635984182357788,0.0824020355939865,1.2184696791468346e-07,0.0,0.0,0.0,1.2184696791468346e-07,0.0,0.0,0.0,1.2184696791468346e-07,0.53936575,0.7649187000000013,9.80665,8.999999999999999e-08,0.0,0.0,0.0,8.999999999999999e-08,0.0,0.0,0.0,8.999999999999999e-08
1729690912.7673986,1830,1729690912,765092096,base_link,-0.009078187020167808,0.052225529346214605,0.3280394228001106,-0.9431756027876808,1.0,0.0,0.0,0.0,1.0,0.0,0.0,0.0,1.0,-0.1380123347043991,0.01965557783842086,-0.04462946206331253,1.2184696791468346e-07,0.0,0.0,0.0,1.2184696791468346e-07,0.0,0.0,0.0,1.2184696791468346e-07,0.4511059,0.8531785500000013,10.28717585,8.999999999999999e-08,0.0,0.0,0.0,8.999999999999999e-08,0.0,0.0,0.0,8.999999999999999e-08
1729690912.8654597,1831,1729690912,864088768,base_link,-0.010075623097454385,0.0526237632106527,0.3266375813859305,-0.9436297535533187,1.0,0.0,0.0,0.0,1.0,0.0,0.0,0.0,1.0,-0.013268832117319107,-0.07551167905330658,-0.02424703538417815,1.2184696791468346e-07,0.0,0.0,0.0,1.2184696791468346e-07,0.0,0.0,0.0,1.2184696791468346e-07,0.4903325,0.8924051500000013,10.11065615,8.999999999999999e-08,0.0,0.0,0.0,8.999999999999999e-08,0.0,0.0,0.0,8.999999999999999e-08
1729690912.9654648,1832,1729690912,964083904,base_link,-0.017569099343570874,0.038491091819471086,0.32675276046435325,-0.9441622721374362,1.0,0.0,0.0,0.0,1.0,0.0,0.0,0.0,1.0,0.28477948904037476,0.6989009380340576,0.023640636354684743,1.2184696791468346e-07,0.0,0.0,0.0,1.2184696791468346e-07,0.0,0.0,0.0,1.2184696791468346e-07,0.65704555,0.6080123000000012,9.56148375,8.999999999999999e-08,0.0,0.0,0.0,8.999999999999999e-08,0.0,0.0,0.0,8.999999999999999e-08
1729690913.0654287,1833,1729690913,64074944,base_link,-0.030262623866873582,-0.0027888643832324365,0.32547882193890093,-0.9450608087850269,1.0,0.0,0.0,0.0,1.0,0.0,0.0,0.0,1.0,-0.2377965897321701,1.098048448562622,-0.06275954097509398,1.2184696791468346e-07,0.0,0.0,0.0,1.2184696791468346e-07,0.0,0.0,0.0,1.2184696791468346e-07,0.8433719,0.6374322500000011,9.414384,8.999999999999999e-08,0.0,0.0,0.0,8.999999999999999e-08,0.0,0.0,0.0,8.999999999999999e-08
1729690913.166465,1834,1729690913,165069312,base_link,-0.037628380608419186,-0.05656187273521136,0.3204228800540138,-0.9448354552319493,1.0,0.0,0.0,0.0,1.0,0.0,0.0,0.0,1.0,-0.05180453881621361,0.7463915348052979,0.06859823316335668,1.2184696791468346e-07,0.0,0.0,0.0,1.2184696791468346e-07,0.0,0.0,0.0,1.2184696791468346e-07,0.93163175,0.5982056500000011,9.9439431,8.999999999999999e-08,0.0,0.0,0.0,8.999999999999999e-08,0.0,0.0,0.0,8.999999999999999e-08
1729690913.2655156,1835,1729690913,264069056,base_link,-0.03930546635764562,-0.08892714567801832,0.3154623695895423,-0.9439441384154676,1.0,0.0,0.0,0.0,1.0,0.0,0.0,0.0,1.0,-0.25087180733680725,0.5325334668159485,0.0190104786306619,1.2184696791468346e-07,0.0,0.0,0.0,1.2184696791468346e-07,0.0,0.0,0.0,1.2184696791468346e-07,0.22555295,0.6472389000000013,10.52253545,8.999999999999999e-08,0.0,0.0,0.0,8.999999999999999e-08,0.0,0.0,0.0,8.999999999999999e-08
1729690913.3724673,1836,1729690913,371064448,base_link,-0.03868856044571742,-0.10714824524621964,0.3122733463758565,-0.9431372148179279,1.0,0.0,0.0,0.0,1.0,0.0,0.0,0.0,1.0,-0.1969713419675827,0.325522243976593,-0.0032336055301130217,1.2184696791468346e-07,0.0,0.0,0.0,1.2184696791468346e-07,0.0,0.0,0.0,1.2184696791468346e-07,0.0,0.8237586000000012,10.34601575,8.999999999999999e-08,0.0,0.0,0.0,8.999999999999999e-08,0.0,0.0,0.0,8.999999999999999e-08
1729690913.4655492,1837,1729690913,464058048,base_link,-0.04030817260918294,-0.11201079902229798,0.31045250763162857,-0.9431055469185452,1.0,0.0,0.0,0.0,1.0,0.0,0.0,0.0,1.0,-0.18215928971767426,-0.012931905686855316,0.002166592516005041,1.2184696791468346e-07,0.0,0.0,0.0,1.2184696791468346e-07,0.0,0.0,0.0,1.2184696791468346e-07,0.32361945000000003,0.4903325000000013,10.198916,8.999999999999999e-08,0.0,0.0,0.0,8.999999999999999e-08,0.0,0.0,0.0,8.999999999999999e-08
1729690913.5655165,1838,1729690913,564059072,base_link,-0.03683033355144414,-0.11004568410732912,0.31172810173168003,-0.9430583569061898,1.0,0.0,0.0,0.0,1.0,0.0,0.0,0.0,1.0,-0.10830807685852051,-0.15917378664016724,-0.08090991526842116,1.2184696791468346e-07,0.0,0.0,0.0,1.2184696791468346e-07,0.0,0.0,0.0,1.2184696791468346e-07,0.32361945000000003,0.4118793000000013,10.34601575,8.999999999999999e-08,0.0,0.0,0.0,8.999999999999999e-08,0.0,0.0,0.0,8.999999999999999e-08
1729690913.6655078,1839,1729690913,664059072,base_link,-0.03161295293478819,-0.06650979639282263,0.3172650205598818,-0.945473413121525,1.0,0.0,0.0,0.0,1.0,0.0,0.0,0.0,1.0,-0.018266776576638222,-1.9217702150344849,0.009589442051947353,1.2184696791468346e-07,0.0,0.0,0.0,1.2184696791468346e-07,0.0,0.0,0.0,1.2184696791468346e-07,0.06864655,0.7747253500000013,10.2969825,8.999999999999999e-08,0.0,0.0,0.0,8.999999999999999e-08,0.0,0.0,0.0,8.999999999999999e-08
1729690913.7654982,1840,1729690913,764059072,base_link,-0.006413488395157848,0.017644063913344464,0.3220670307412535,-0.9465307083685871,1.0,0.0,0.0,0.0,1.0,0.0,0.0,0.0,1.0,0.09550376981496811,-1.1030060052871704,0.030742689967155592,1.2184696791468346e-07,0.0,0.0,0.0,1.2184696791468346e-07,0.0,0.0,0.0,1.2184696791468346e-07,-1.46119085,0.6374322500000013,9.91452315,8.999999999999999e-08,0.0,0.0,0.0,8.999999999999999e-08,0.0,0.0,0.0,8.999999999999999e-08
1729690913.8656273,1841,1729690913,864059072,base_link,0.011255942710479904,0.06674748943414648,0.32644200482759766,-0.9427903764316199,1.0,0.0,0.0,0.0,1.0,0.0,0.0,0.0,1.0,0.050387922674417496,-1.1380248069763184,-0.024938015267252783,1.2184696791468346e-07,0.0,0.0,0.0,1.2184696791468346e-07,0.0,0.0,0.0,1.2184696791468346e-07,1.0002783,0.3530394000000011,9.24767095,8.999999999999999e-08,0.0,0.0,0.0,8.999999999999999e-08,0.0,0.0,0.0,8.999999999999999e-08
1729690913.965772,1842,1729690913,964056256,base_link,0.026283412027030953,0.11870746185561473,0.32779809332397347,-0.9368917390847156,1.0,0.0,0.0,0.0,1.0,0.0,0.0,0.0,1.0,0.13562685251235962,-1.0006341934204102,0.009934771806001786,1.2184696791468346e-07,0.0,0.0,0.0,1.2184696791468346e-07,0.0,0.0,0.0,1.2184696791468346e-07,-0.0196133,0.9218251000000013,10.56176205,8.999999999999999e-08,0.0,0.0,0.0,8.999999999999999e-08,0.0,0.0,0.0,8.999999999999999e-08
1729690914.065688,1843,1729690914,64052928,base_link,0.043419051614649026,0.16392148094488956,0.33030565928614974,-0.9285164002241751,1.0,0.0,0.0,0.0,1.0,0.0,0.0,0.0,1.0,-0.166280135512352,-0.7890595197677612,-0.05669756978750219,1.2184696791468346e-07,0.0,0.0,0.0,1.2184696791468346e-07,0.0,0.0,0.0,1.2184696791468346e-07,-0.04903325,0.4118793000000013,10.0812362,8.999999999999999e-08,0.0,0.0,0.0,8.999999999999999e-08,0.0,0.0,0.0,8.999999999999999e-08
1729690914.1657088,1844,1729690914,164048576,base_link,0.0546859372035744,0.18495687327376648,0.3292977464278475,-0.9243178011368707,1.0,0.0,0.0,0.0,1.0,0.0,0.0,0.0,1.0,-0.07200657576322556,-0.2856714725494385,0.10307765007019047,1.2184696791468346e-07,0.0,0.0,0.0,1.2184696791468346e-07,0.0,0.0,0.0,1.2184696791468346e-07,0.46091255,0.5001391500000013,10.0616229,8.999999999999999e-08,0.0,0.0,0.0,8.999999999999999e-08,0.0,0.0,0.0,8.999999999999999e-08
1729690914.2656975,1845,1729690914,264043968,base_link,0.0593553599712179,0.19925467345569345,0.3232646068593149,-0.9231871480370839,1.0,0.0,0.0,0.0,1.0,0.0,0.0,0.0,1.0,-0.11941339820623398,-0.18916140496730802,0.16220542788505557,1.2184696791468346e-07,0.0,0.0,0.0,1.2184696791468346e-07,0.0,0.0,0.0,1.2184696791468346e-07,0.22555295,0.7747253500000013,10.6304086,8.999999999999999e-08,0.0,0.0,0.0,8.999999999999999e-08,0.0,0.0,0.0,8.999999999999999e-08
1729690914.3656986,1846,1729690914,364040640,base_link,0.05940530936316701,0.20521094117135125,0.31522971616214607,-0.9246565334714116,1.0,0.0,0.0,0.0,1.0,0.0,0.0,0.0,1.0,0.06933708488941193,-0.09461724758148192,0.1432289332151413,1.2184696791468346e-07,0.0,0.0,0.0,1.2184696791468346e-07,0.0,0.0,0.0,1.2184696791468346e-07,0.46091255,0.5393657500000013,10.85596155,8.999999999999999e-08,0.0,0.0,0.0,8.999999999999999e-08,0.0,0.0,0.0,8.999999999999999e-08
1729690914.4677453,1847,1729690914,464036544,base_link,0.0567513941559517,0.204865252680508,0.3082604315977664,-0.9272459295228349,1.0,0.0,0.0,0.0,1.0,0.0,0.0,0.0,1.0,-0.04217017814517021,0.04462984204292299,0.1357797384262085,1.2184696791468346e-07,0.0,0.0,0.0,1.2184696791468346e-07,0.0,0.0,0.0,1.2184696791468346e-07,0.588399,0.4511059000000013,10.44408225,8.999999999999999e-08,0.0,0.0,0.0,8.999999999999999e-08,0.0,0.0,0.0,8.999999999999999e-08
1729690914.5663722,1848,1729690914,565030656,base_link,0.055166769134803624,0.20329471831473875,0.30465774833447135,-0.9288764941951799,1.0,0.0,0.0,0.0,1.0,0.0,0.0,0.0,1.0,0.0434131994843483,0.11519088596105576,-0.00013164244592191198,1.2184696791468346e-07,0.0,0.0,0.0,1.2184696791468346e-07,0.0,0.0,0.0,1.2184696791468346e-07,0.42168595,0.6178189500000013,11.0226746,8.999999999999999e-08,0.0,0.0,0.0,8.999999999999999e-08,0.0,0.0,0.0,8.999999999999999e-08
1729690914.6662903,1849,1729690914,665028352,base_link,0.055797021852287194,0.20299548271275134,0.3053817984501862,-0.9286665082396168,1.0,0.0,0.0,0.0,1.0,0.0,0.0,0.0,1.0,0.14839832484722137,-0.05040676519274712,-0.07919756323099136,1.2184696791468346e-07,0.0,0.0,0.0,1.2184696791468346e-07,0.0,0.0,0.0,1.2184696791468346e-07,0.7649187,0.7551120500000014,10.97364135,8.999999999999999e-08,0.0,0.0,0.0,8.999999999999999e-08,0.0,0.0,0.0,8.999999999999999e-08
1729690914.769517,1850,1729690914,767024000,base_link,0.05443028210705359,0.2015648876566822,0.3090975446283025,-0.9278295362610796,1.0,0.0,0.0,0.0,1.0,0.0,0.0,0.0,1.0,0.14260360598564148,0.050189085304737084,-0.06825260072946548,1.2184696791468346e-07,0.0,0.0,0.0,1.2184696791468346e-07,0.0,0.0,0.0,1.2184696791468346e-07,0.6080123,0.22555295000000128,10.4146623,8.999999999999999e-08,0.0,0.0,0.0,8.999999999999999e-08,0.0,0.0,0.0,8.999999999999999e-08
1729690914.864786,1851,1729690914,864018624,base_link,0.05661762405955239,0.19257409942105033,0.31715813918683644,-0.9268874665381799,1.0,0.0,0.0,0.0,1.0,0.0,0.0,0.0,1.0,-0.1672917604446411,0.37177374958992004,-0.1288991123437882,1.2184696791468346e-07,0.0,0.0,0.0,1.2184696791468346e-07,0.0,0.0,0.0,1.2184696791468346e-07,0.3726527,0.5491724000000013,10.77750835,8.999999999999999e-08,0.0,0.0,0.0,8.999999999999999e-08,0.0,0.0,0.0,8.999999999999999e-08
1729690914.9698093,1852,1729690914,969008384,base_link,0.05472358932348299,0.18708021918991122,0.32267775879121446,-0.926221023482456,1.0,0.0,0.0,0.0,1.0,0.0,0.0,0.0,1.0,-0.05917191505432129,-0.013588805682957191,-0.15556077659130096,1.2184696791468346e-07,0.0,0.0,0.0,1.2184696791468346e-07,0.0,0.0,0.0,1.2184696791468346e-07,0.9610517000000001,0.7551120500000014,11.64049355,8.999999999999999e-08,0.0,0.0,0.0,8.999999999999999e-08,0.0,0.0,0.0,8.999999999999999e-08
