Time,header.seq,header.stamp.secs,header.stamp.nsecs,header.frame_id,orientation.x,orientation.y,orientation.z,orientation.w,orientation_covariance_0,orientation_covariance_1,orientation_covariance_2,orientation_covariance_3,orientation_covariance_4,orientation_covariance_5,orientation_covariance_6,orientation_covariance_7,orientation_covariance_8,angular_velocity.x,angular_velocity.y,angular_velocity.z,angular_velocity_covariance_0,angular_velocity_covariance_1,angular_velocity_covariance_2,angular_velocity_covariance_3,angular_velocity_covariance_4,angular_velocity_covariance_5,angular_velocity_covariance_6,angular_velocity_covariance_7,angular_velocity_covariance_8,linear_acceleration.x,linear_acceleration.y,linear_acceleration.z,linear_acceleration_covariance_0,linear_acceleration_covariance_1,linear_acceleration_covariance_2,linear_acceleration_covariance_3,linear_acceleration_covariance_4,linear_acceleration_covariance_5,linear_acceleration_covariance_6,linear_acceleration_covariance_7,linear_acceleration_covariance_8
1729690891.1185286,1605,1729690889,956123008,base_link,0.1116707798473336,0.02143309814615103,-0.2838977762983884,-0.9520883949744248,1.0,0.0,0.0,0.0,1.0,0.0,0.0,0.0,1.0,0.1915823370218277,-0.3272936642169953,-0.2808780968189239,1.2184696791468346e-07,0.0,0.0,0.0,1.2184696791468346e-07,0.0,0.0,0.0,1.2184696791468346e-07,-0.08825985,-0.8139519499999986,11.9248864,8.999999999999999e-08,0.0,0.0,0.0,8.999999999999999e-08,0.0,0.0,0.0,8.999999999999999e-08
1729690891.118813,1606,1729690890,58123008,base_link,0.08509717010626154,0.03940562049017743,-0.2787552671920598,-0.9557725512517992,1.0,0.0,0.0,0.0,1.0,0.0,0.0,0.0,1.0,0.5938903093338013,-0.5451591610908508,-0.06068968027830117,1.2184696791468346e-07,0.0,0.0,0.0,1.2184696791468346e-07,0.0,0.0,0.0,1.2184696791468346e-07,-0.4118793,-1.1081514499999985,12.5721253,8.999999999999999e-08,0.0,0.0,0.0,8.999999999999999e-08,0.0,0.0,0.0,8.999999999999999e-08
1729690891.119464,1607,1729690890,155123008,base_link,0.0653109813487549,0.05722832026127039,-0.2777600734661586,-0.9567176891138838,1.0,0.0,0.0,0.0,1.0,0.0,0.0,0.0,1.0,0.036094099283218384,-0.4147607982158661,-0.1280324608087539,1.2184696791468346e-07,0.0,0.0,0.0,1.2184696791468346e-07,0.0,0.0,0.0,1.2184696791468346e-07,0.67665885,-0.696272149999999,7.8845466,8.999999999999999e-08,0.0,0.0,0.0,8.999999999999999e-08,0.0,0.0,0.0,8.999999999999999e-08
1729690891.1207948,1608,1729690890,253123008,base_link,0.04294006889709004,0.07401044162235461,-0.2815948215472719,-0.9557107101480746,1.0,0.0,0.0,0.0,1.0,0.0,0.0,0.0,1.0,0.3983593285083771,-0.4496303498744964,0.26112416386604315,1.2184696791468346e-07,0.0,0.0,0.0,1.2184696791468346e-07,0.0,0.0,0.0,1.2184696791468346e-07,0.08825985,-0.7845319999999985,12.2190859,8.999999999999999e-08,0.0,0.0,0.0,8.999999999999999e-08,0.0,0.0,0.0,8.999999999999999e-08
1729690891.1257138,1609,1729690890,353123008,base_link,0.028866310481304242,0.08299161341106533,-0.2883411795775387,-0.9534875418076834,1.0,0.0,0.0,0.0,1.0,0.0,0.0,0.0,1.0,-0.1890334188938141,-0.24333737790584561,0.19955988228321078,1.2184696791468346e-07,0.0,0.0,0.0,1.2184696791468346e-07,0.0,0.0,0.0,1.2184696791468346e-07,0.97085835,-0.9414383999999988,10.2185293,8.999999999999999e-08,0.0,0.0,0.0,8.999999999999999e-08,0.0,0.0,0.0,8.999999999999999e-08
1729690891.1263955,1610,1729690890,454123008,base_link,0.01715233998180796,0.09077966221331014,-0.29902101503188194,-0.9497638036537761,1.0,0.0,0.0,0.0,1.0,0.0,0.0,0.0,1.0,0.2312648445367813,-0.1285464167594909,0.3853527307510376,1.2184696791468346e-07,0.0,0.0,0.0,1.2184696791468346e-07,0.0,0.0,0.0,1.2184696791468346e-07,-0.40207265000000003,-0.5197524499999989,8.924051500000001,8.999999999999999e-08,0.0,0.0,0.0,8.999999999999999e-08,0.0,0.0,0.0,8.999999999999999e-08
1729690891.1264975,1611,1729690890,556123008,base_link,0.005919395208326868,0.09279875615327797,-0.31418444519880995,-0.944797060755318,1.0,0.0,0.0,0.0,1.0,0.0,0.0,0.0,1.0,0.37443095445632935,-0.17261710762977597,0.2626557946205139,1.2184696791468346e-07,0.0,0.0,0.0,1.2184696791468346e-07,0.0,0.0,0.0,1.2184696791468346e-07,0.67665885,-1.2454445499999987,10.3165958,8.999999999999999e-08,0.0,0.0,0.0,8.999999999999999e-08,0.0,0.0,0.0,8.999999999999999e-08
1729690891.1265898,1612,1729690890,656123008,base_link,0.0015568040688115597,0.10035267438633313,-0.33076260617095204,-0.9383618787352787,1.0,0.0,0.0,0.0,1.0,0.0,0.0,0.0,1.0,0.060124531388282776,-0.12134063988924021,0.4372924566268921,1.2184696791468346e-07,0.0,0.0,0.0,1.2184696791468346e-07,0.0,0.0,0.0,1.2184696791468346e-07,0.18632635,0.06864655000000122,10.01258965,8.999999999999999e-08,0.0,0.0,0.0,8.999999999999999e-08,0.0,0.0,0.0,8.999999999999999e-08
1729690891.126617,1613,1729690890,753123008,base_link,-0.004062901641041646,0.10453641272954381,-0.3507628086786405,-0.9306025377634455,1.0,0.0,0.0,0.0,1.0,0.0,0.0,0.0,1.0,0.16723236441612244,-0.1339936554431915,0.23576417565345767,1.2184696791468346e-07,0.0,0.0,0.0,1.2184696791468346e-07,0.0,0.0,0.0,1.2184696791468346e-07,0.46091255,-0.5197524499999988,9.42419065,8.999999999999999e-08,0.0,0.0,0.0,8.999999999999999e-08,0.0,0.0,0.0,8.999999999999999e-08
1729690891.1266701,1614,1729690890,857123008,base_link,-0.006919675582052866,0.10945643348305426,-0.3720841009909098,-0.9216967120744195,1.0,0.0,0.0,0.0,1.0,0.0,0.0,0.0,1.0,-0.024815384298563004,0.08220876753330233,0.2666105031967163,1.2184696791468346e-07,0.0,0.0,0.0,1.2184696791468346e-07,0.0,0.0,0.0,1.2184696791468346e-07,0.24516625,-0.5099457999999987,10.93441475,8.999999999999999e-08,0.0,0.0,0.0,8.999999999999999e-08,0.0,0.0,0.0,8.999999999999999e-08
1729690891.126695,1615,1729690890,960123008,base_link,-0.01458278252981489,0.10916592545109485,-0.3924858318001268,-0.9131401946088327,1.0,0.0,0.0,0.0,1.0,0.0,0.0,0.0,1.0,-0.09942485392093658,-0.04086826741695399,0.36842837929725647,1.2184696791468346e-07,0.0,0.0,0.0,1.2184696791468346e-07,0.0,0.0,0.0,1.2184696791468346e-07,-0.0588399,-0.7747253499999988,9.75761675,8.999999999999999e-08,0.0,0.0,0.0,8.999999999999999e-08,0.0,0.0,0.0,8.999999999999999e-08
1729690891.1269286,1616,1729690891,58123008,base_link,-0.020474514798582304,0.11047796540730655,-0.4085655872147913,-0.9057867157046725,1.0,0.0,0.0,0.0,1.0,0.0,0.0,0.0,1.0,0.1322798877954483,-0.02988651767373081,0.3487776517868042,1.2184696791468346e-07,0.0,0.0,0.0,1.2184696791468346e-07,0.0,0.0,0.0,1.2184696791468346e-07,-0.4903325,-0.11767979999999893,8.7083052,8.999999999999999e-08,0.0,0.0,0.0,8.999999999999999e-08,0.0,0.0,0.0,8.999999999999999e-08
1729690891.1585565,1617,1729690891,155123008,base_link,-0.025085048663812178,0.10949531392431644,-0.4208807568884264,-0.9001338261854039,1.0,0.0,0.0,0.0,1.0,0.0,0.0,0.0,1.0,-0.1193230152130127,0.0350957550108433,0.1813129484653473,1.2184696791468346e-07,0.0,0.0,0.0,1.2184696791468346e-07,0.0,0.0,0.0,1.2184696791468346e-07,0.26477955,-1.4709974999999988,9.7870367,8.999999999999999e-08,0.0,0.0,0.0,8.999999999999999e-08,0.0,0.0,0.0,8.999999999999999e-08
1729690891.254478,1618,1729690891,253123008,base_link,-0.02877012229232108,0.1069007349796122,-0.4315080155990523,-0.8952906485593779,1.0,0.0,0.0,0.0,1.0,0.0,0.0,0.0,1.0,0.24682505428791046,-0.03163173794746394,0.4167937636375427,1.2184696791468346e-07,0.0,0.0,0.0,1.2184696791468346e-07,0.0,0.0,0.0,1.2184696791468346e-07,-0.06864655,-0.2647795499999988,9.62032365,8.999999999999999e-08,0.0,0.0,0.0,8.999999999999999e-08,0.0,0.0,0.0,8.999999999999999e-08
1729690891.3596015,1619,1729690891,358123008,base_link,-0.03226065367918189,0.09990064261002979,-0.4404063083607234,-0.8916397228625329,1.0,0.0,0.0,0.0,1.0,0.0,0.0,0.0,1.0,0.34336134791374207,0.03716236352920534,0.15665355324745178,1.2184696791468346e-07,0.0,0.0,0.0,1.2184696791468346e-07,0.0,0.0,0.0,1.2184696791468346e-07,0.4511059,-0.9512450499999989,9.12999115,8.999999999999999e-08,0.0,0.0,0.0,8.999999999999999e-08,0.0,0.0,0.0,8.999999999999999e-08
1729690891.4611795,1620,1729690891,453123008,base_link,-0.03536340906551312,0.0982751394137164,-0.44997598751231854,-0.8869120795968412,1.0,0.0,0.0,0.0,1.0,0.0,0.0,0.0,1.0,-0.09282425045967102,0.14072687923908236,0.2613759934902191,1.2184696791468346e-07,0.0,0.0,0.0,1.2184696791468346e-07,0.0,0.0,0.0,1.2184696791468346e-07,-0.10787315,-0.6962721499999988,10.002783,8.999999999999999e-08,0.0,0.0,0.0,8.999999999999999e-08,0.0,0.0,0.0,8.999999999999999e-08
1729690891.557494,1621,1729690891,554123008,base_link,-0.039914597531617566,0.09211717839397138,-0.4582526934818075,-0.8831340324465424,1.0,0.0,0.0,0.0,1.0,0.0,0.0,0.0,1.0,-0.1085696890950203,0.13401888310909274,0.14571563899517057,1.2184696791468346e-07,0.0,0.0,0.0,1.2184696791468346e-07,0.0,0.0,0.0,1.2184696791468346e-07,-0.44129925000000003,-0.2843928499999988,9.6497436,8.999999999999999e-08,0.0,0.0,0.0,8.999999999999999e-08,0.0,0.0,0.0,8.999999999999999e-08
1729690891.656325,1622,1729690891,655121216,base_link,-0.035710148441534986,0.0819751914751563,-0.4669666272367693,-0.879742588674671,1.0,0.0,0.0,0.0,1.0,0.0,0.0,0.0,1.0,-0.2563888728618622,0.37216052412986755,0.2209531664848327,1.2184696791468346e-07,0.0,0.0,0.0,1.2184696791468346e-07,0.0,0.0,0.0,1.2184696791468346e-07,1.06892485,-0.7845319999999989,9.2770909,8.999999999999999e-08,0.0,0.0,0.0,8.999999999999999e-08,0.0,0.0,0.0,8.999999999999999e-08
1729690891.7572184,1623,1729690891,755119424,base_link,-0.017293726701751163,0.07601610131519325,-0.47579906578504105,-0.8760923058420761,1.0,0.0,0.0,0.0,1.0,0.0,0.0,0.0,1.0,-0.2493980973958969,0.2523418068885803,0.05936769396066663,1.2184696791468346e-07,0.0,0.0,0.0,1.2184696791468346e-07,0.0,0.0,0.0,1.2184696791468346e-07,0.0,-0.6766588499999989,9.28689755,8.999999999999999e-08,0.0,0.0,0.0,8.999999999999999e-08,0.0,0.0,0.0,8.999999999999999e-08
1729690891.8579717,1624,1729690891,855119424,base_link,-0.0010915443835232757,0.08016948178276162,-0.4878402865590792,-0.869243071603966,1.0,0.0,0.0,0.0,1.0,0.0,0.0,0.0,1.0,-0.17605270445346832,-0.026063673198223076,0.30094316601753235,1.2184696791468346e-07,0.0,0.0,0.0,1.2184696791468346e-07,0.0,0.0,0.0,1.2184696791468346e-07,-0.08825985,-0.5001391499999985,11.91507975,8.999999999999999e-08,0.0,0.0,0.0,8.999999999999999e-08,0.0,0.0,0.0,8.999999999999999e-08
1729690891.9561894,1625,1729690891,953115584,base_link,-0.0015416635080250857,0.09007267746119191,-0.5036142612052297,-0.8592189546089579,1.0,0.0,0.0,0.0,1.0,0.0,0.0,0.0,1.0,0.13642151653766632,-0.26995271444320673,0.43611288070678716,1.2184696791468346e-07,0.0,0.0,0.0,1.2184696791468346e-07,0.0,0.0,0.0,1.2184696791468346e-07,0.0980665,-0.4903324999999989,8.99269805,8.999999999999999e-08,0.0,0.0,0.0,8.999999999999999e-08,0.0,0.0,0.0,8.999999999999999e-08
1729690892.0559335,1626,1729690892,53113536,base_link,-0.012492602138110563,0.09315596457096363,-0.5240981192801917,-0.8464555880397023,1.0,0.0,0.0,0.0,1.0,0.0,0.0,0.0,1.0,0.4125381410121918,-0.11740092188119883,0.42220401763916016,1.2184696791468346e-07,0.0,0.0,0.0,1.2184696791468346e-07,0.0,0.0,0.0,1.2184696791468346e-07,0.7453054,-1.4317708999999985,11.2384209,8.999999999999999e-08,0.0,0.0,0.0,8.999999999999999e-08,0.0,0.0,0.0,8.999999999999999e-08
1729690892.156272,1627,1729690892,153113280,base_link,-0.023964606524397362,0.09441570090551696,-0.5493495581199539,-0.8298954368172305,1.0,0.0,0.0,0.0,1.0,0.0,0.0,0.0,1.0,0.10688652843236923,-0.13998751342296595,0.5562796592712402,1.2184696791468346e-07,0.0,0.0,0.0,1.2184696791468346e-07,0.0,0.0,0.0,1.2184696791468346e-07,0.18632635,-0.6472388999999987,10.6107953,8.999999999999999e-08,0.0,0.0,0.0,8.999999999999999e-08,0.0,0.0,0.0,8.999999999999999e-08
1729690892.2541928,1628,1729690892,253113024,base_link,-0.03518102742043509,0.09052811638447712,-0.5764694421937551,-0.8113260366032525,1.0,0.0,0.0,0.0,1.0,0.0,0.0,0.0,1.0,0.6186415553092957,-0.04904171824455253,0.6806796193122864,1.2184696791468346e-07,0.0,0.0,0.0,1.2184696791468346e-07,0.0,0.0,0.0,1.2184696791468346e-07,-0.00980665,-0.6766588499999985,12.36618565,8.999999999999999e-08,0.0,0.0,0.0,8.999999999999999e-08,0.0,0.0,0.0,8.999999999999999e-08
1729690892.3543105,1629,1729690892,353112768,base_link,-0.04382884790044006,0.08184952784548331,-0.6042078977189238,-0.7913990796161376,1.0,0.0,0.0,0.0,1.0,0.0,0.0,0.0,1.0,0.45400524139404297,0.049370400607586,0.7316404581069946,1.2184696791468346e-07,0.0,0.0,0.0,1.2184696791468346e-07,0.0,0.0,0.0,1.2184696791468346e-07,0.8041453000000001,-0.7649186999999987,10.6500219,8.999999999999999e-08,0.0,0.0,0.0,8.999999999999999e-08,0.0,0.0,0.0,8.999999999999999e-08
1729690892.455377,1630,1729690892,453112768,base_link,-0.045478946675613,0.07045656970317207,-0.6350902270069534,-0.7678723466535274,1.0,0.0,0.0,0.0,1.0,0.0,0.0,0.0,1.0,-0.03887694329023361,0.210842251777649,0.6728567481040955,1.2184696791468346e-07,0.0,0.0,0.0,1.2184696791468346e-07,0.0,0.0,0.0,1.2184696791468346e-07,0.4314926,-0.6374322499999987,9.8851032,8.999999999999999e-08,0.0,0.0,0.0,8.999999999999999e-08,0.0,0.0,0.0,8.999999999999999e-08
1729690892.554552,1631,1729690892,553113024,base_link,-0.05225675044440812,0.06330357026834588,-0.6628193339395102,-0.7442663639989755,1.0,0.0,0.0,0.0,1.0,0.0,0.0,0.0,1.0,0.45316773653030396,-0.02799895405769338,0.8302382826805115,1.2184696791468346e-07,0.0,0.0,0.0,1.2184696791468346e-07,0.0,0.0,0.0,1.2184696791468346e-07,-0.87279185,-1.0100849499999984,12.34657235,8.999999999999999e-08,0.0,0.0,0.0,8.999999999999999e-08,0.0,0.0,0.0,8.999999999999999e-08
1729690892.661172,1632,1729690892,655113792,base_link,-0.0555278448095576,0.05566762391651593,-0.6906970220128289,-0.7188570079514456,1.0,0.0,0.0,0.0,1.0,0.0,0.0,0.0,1.0,0.34060561656951904,0.07541668415069588,0.7124131917953491,1.2184696791468346e-07,0.0,0.0,0.0,1.2184696791468346e-07,0.0,0.0,0.0,1.2184696791468346e-07,0.69627215,-0.6472388999999988,9.5320638,8.999999999999999e-08,0.0,0.0,0.0,8.999999999999999e-08,0.0,0.0,0.0,8.999999999999999e-08
1729690892.7547636,1633,1729690892,753114560,base_link,-0.05540787462585412,0.048733137226521735,-0.7186516407049068,-0.6914440455146401,1.0,0.0,0.0,0.0,1.0,0.0,0.0,0.0,1.0,0.006735815200954676,0.1271565258502961,0.6469129323959351,1.2184696791468346e-07,0.0,0.0,0.0,1.2184696791468346e-07,0.0,0.0,0.0,1.2184696791468346e-07,-0.08825985,-0.3432327499999986,11.32668075,8.999999999999999e-08,0.0,0.0,0.0,8.999999999999999e-08,0.0,0.0,0.0,8.999999999999999e-08
1729690892.855673,1634,1729690892,853113792,base_link,-0.06016149354146045,0.04402187953854036,-0.7448509833535432,-0.6630533020911777,1.0,0.0,0.0,0.0,1.0,0.0,0.0,0.0,1.0,0.2384679615497589,-0.006490825675427817,0.7879000306129456,1.2184696791468346e-07,0.0,0.0,0.0,1.2184696791468346e-07,0.0,0.0,0.0,1.2184696791468346e-07,-0.4707192,-0.8041452999999985,12.18966595,8.999999999999999e-08,0.0,0.0,0.0,8.999999999999999e-08,0.0,0.0,0.0,8.999999999999999e-08
1729690892.9561634,1635,1729690892,954113280,base_link,-0.06109389241489711,0.0388451509769108,-0.7717953248942602,-0.6317361530152771,1.0,0.0,0.0,0.0,1.0,0.0,0.0,0.0,1.0,0.1939154863357544,0.06638453900814067,0.883057177066803,1.2184696791468346e-07,0.0,0.0,0.0,1.2184696791468346e-07,0.0,0.0,0.0,1.2184696791468346e-07,0.28439285000000003,-0.38245934999999875,9.97336305,8.999999999999999e-08,0.0,0.0,0.0,8.999999999999999e-08,0.0,0.0,0.0,8.999999999999999e-08
1729690893.059373,1636,1729690893,55113280,base_link,-0.06194334407738001,0.01936608139903125,-0.7977619125968523,-0.5994696888296934,1.0,0.0,0.0,0.0,1.0,0.0,0.0,0.0,1.0,0.4465441107749939,0.1550346314907075,0.7939257025718689,1.2184696791468346e-07,0.0,0.0,0.0,1.2184696791468346e-07,0.0,0.0,0.0,1.2184696791468346e-07,0.2941995,-0.47071919999999895,8.28661925,8.999999999999999e-08,0.0,0.0,0.0,8.999999999999999e-08,0.0,0.0,0.0,8.999999999999999e-08
1729690893.1590395,1637,1729690893,153113280,base_link,-0.06456892841176604,0.023070798984499253,-0.8159181140349279,-0.5740872955462951,1.0,0.0,0.0,0.0,1.0,0.0,0.0,0.0,1.0,-0.031336866319179535,-0.1594358086585998,0.4182864725589752,1.2184696791468346e-07,0.0,0.0,0.0,1.2184696791468346e-07,0.0,0.0,0.0,1.2184696791468346e-07,0.10787315,0.14709975000000106,8.56120545,8.999999999999999e-08,0.0,0.0,0.0,8.999999999999999e-08,0.0,0.0,0.0,8.999999999999999e-08
1729690893.2571118,1638,1729690893,253113280,base_link,-0.06253178263070852,0.0354098087708313,-0.8330643054100371,-0.5484886367606271,1.0,0.0,0.0,0.0,1.0,0.0,0.0,0.0,1.0,-0.30725759267807007,0.07206360995769509,0.6957773566246033,1.2184696791468346e-07,0.0,0.0,0.0,1.2184696791468346e-07,0.0,0.0,0.0,1.2184696791468346e-07,0.51975245,-0.5883989999999988,9.8851032,8.999999999999999e-08,0.0,0.0,0.0,8.999999999999999e-08,0.0,0.0,0.0,8.999999999999999e-08
1729690893.3549256,1639,1729690893,353113536,base_link,-0.053455447193108706,0.04799108071778692,-0.8482737485858305,-0.5246627667340871,1.0,0.0,0.0,0.0,1.0,0.0,0.0,0.0,1.0,-0.2850073575973511,-0.08654273301362984,0.587517499923706,1.2184696791468346e-07,0.0,0.0,0.0,1.2184696791468346e-07,0.0,0.0,0.0,1.2184696791468346e-07,-0.196133,1.1060917612762579e-15,9.03192465,8.999999999999999e-08,0.0,0.0,0.0,8.999999999999999e-08,0.0,0.0,0.0,8.999999999999999e-08
1729690893.454857,1640,1729690893,453110720,base_link,-0.04119447031181557,0.0741135404207787,-0.8599953380983848,-0.5032079263992879,1.0,0.0,0.0,0.0,1.0,0.0,0.0,0.0,1.0,-0.5649262070655823,0.05279904976487165,0.4542357325553894,1.2184696791468346e-07,0.0,0.0,0.0,1.2184696791468346e-07,0.0,0.0,0.0,1.2184696791468346e-07,0.392266,-0.4020726499999986,11.11093445,8.999999999999999e-08,0.0,0.0,0.0,8.999999999999999e-08,0.0,0.0,0.0,8.999999999999999e-08
1729690893.5548782,1641,1729690893,553110464,base_link,-0.033251632197873554,0.08526039929462231,-0.8742600032183151,-0.47675406662241576,1.0,0.0,0.0,0.0,1.0,0.0,0.0,0.0,1.0,0.27176663279533386,-0.033490054309368064,0.5617397427558899,1.2184696791468346e-07,0.0,0.0,0.0,1.2184696791468346e-07,0.0,0.0,0.0,1.2184696791468346e-07,-0.0392266,-0.6080122999999986,11.4933938,8.999999999999999e-08,0.0,0.0,0.0,8.999999999999999e-08,0.0,0.0,0.0,8.999999999999999e-08
1729690893.6556017,1642,1729690893,653110208,base_link,-0.03145918015344725,0.06775707833309857,-0.888991977712953,-0.45178818253895003,1.0,0.0,0.0,0.0,1.0,0.0,0.0,0.0,1.0,0.28966566920280457,0.26852878928184515,0.4675941169261932,1.2184696791468346e-07,0.0,0.0,0.0,1.2184696791468346e-07,0.0,0.0,0.0,1.2184696791468346e-07,0.32361945000000003,-0.6864654999999991,8.1591328,8.999999999999999e-08,0.0,0.0,0.0,8.999999999999999e-08,0.0,0.0,0.0,8.999999999999999e-08
1729690893.7548244,1643,1729690893,753110464,base_link,-0.039972768849350755,0.03520373988176957,-0.9017760330263709,-0.428908918895463,1.0,0.0,0.0,0.0,1.0,0.0,0.0,0.0,1.0,0.6182692050933838,0.17647610604763034,0.2943556308746338,1.2184696791468346e-07,0.0,0.0,0.0,1.2184696791468346e-07,0.0,0.0,0.0,1.2184696791468346e-07,-0.0980665,-0.9316317499999984,12.160246,8.999999999999999e-08,0.0,0.0,0.0,8.999999999999999e-08,0.0,0.0,0.0,8.999999999999999e-08
1729690893.8547926,1644,1729690893,853109696,base_link,-0.05422457160042761,-0.001884528325039672,-0.9117749149538816,-0.4070904676464239,1.0,0.0,0.0,0.0,1.0,0.0,0.0,0.0,1.0,0.8521391749382019,0.13638272881507876,0.20965684950351712,1.2184696791468346e-07,0.0,0.0,0.0,1.2184696791468346e-07,0.0,0.0,0.0,1.2184696791468346e-07,-0.3138128,-0.7453053999999986,11.91507975,8.999999999999999e-08,0.0,0.0,0.0,8.999999999999999e-08,0.0,0.0,0.0,8.999999999999999e-08
1729690893.954851,1645,1729690893,953108672,base_link,-0.06480183498461049,-0.03351732018267857,-0.9184565235148257,-0.38873503295105755,1.0,0.0,0.0,0.0,1.0,0.0,0.0,0.0,1.0,0.6403446197509766,0.10032499581575396,0.18242330849170685,1.2184696791468346e-07,0.0,0.0,0.0,1.2184696791468346e-07,0.0,0.0,0.0,1.2184696791468346e-07,-0.0588399,-0.7845319999999985,12.0229529,8.999999999999999e-08,0.0,0.0,0.0,8.999999999999999e-08,0.0,0.0,0.0,8.999999999999999e-08
1729690894.056548,1646,1729690894,53108160,base_link,-0.07216710820349155,-0.06161985591555871,-0.9249426311720602,-0.36807068735637893,1.0,0.0,0.0,0.0,1.0,0.0,0.0,0.0,1.0,0.8532955050468445,0.17667885124683386,0.4068930447101593,1.2184696791468346e-07,0.0,0.0,0.0,1.2184696791468346e-07,0.0,0.0,0.0,1.2184696791468346e-07,-0.2941995,-0.5001391499999986,11.0226746,8.999999999999999e-08,0.0,0.0,0.0,8.999999999999999e-08,0.0,0.0,0.0,8.999999999999999e-08
1729690894.1564233,1647,1729690894,153109440,base_link,-0.07301700560520713,-0.08449754744447152,-0.930505995711354,-0.34883702973385716,1.0,0.0,0.0,0.0,1.0,0.0,0.0,0.0,1.0,0.5086345672607422,0.04875991120934493,0.5536864399909973,1.2184696791468346e-07,0.0,0.0,0.0,1.2184696791468346e-07,0.0,0.0,0.0,1.2184696791468346e-07,0.3530394,-0.42168594999999875,10.091042850000001,8.999999999999999e-08,0.0,0.0,0.0,8.999999999999999e-08,0.0,0.0,0.0,8.999999999999999e-08
1729690894.255804,1648,1729690894,253109696,base_link,-0.0653131075078399,-0.07804494717382718,-0.9370900500726699,-0.33392427624104354,1.0,0.0,0.0,0.0,1.0,0.0,0.0,0.0,1.0,-0.6775251626968384,0.2570025622844696,0.12612298130989072,1.2184696791468346e-07,0.0,0.0,0.0,1.2184696791468346e-07,0.0,0.0,0.0,1.2184696791468346e-07,0.1569064,-0.15690639999999895,8.69849855,8.999999999999999e-08,0.0,0.0,0.0,8.999999999999999e-08,0.0,0.0,0.0,8.999999999999999e-08
1729690894.3558424,1649,1729690894,354109440,base_link,-0.053954104110325245,-0.058335385758584886,-0.9433347717396348,-0.32218852531550635,1.0,0.0,0.0,0.0,1.0,0.0,0.0,0.0,1.0,-0.6673510074615479,0.17708934843540194,0.2989238500595093,1.2184696791468346e-07,0.0,0.0,0.0,1.2184696791468346e-07,0.0,0.0,0.0,1.2184696791468346e-07,-0.588399,-0.07845319999999853,12.0425662,8.999999999999999e-08,0.0,0.0,0.0,8.999999999999999e-08,0.0,0.0,0.0,8.999999999999999e-08
1729690894.4559476,1650,1729690894,454107648,base_link,-0.042440485921507766,-0.04104005326490299,-0.949403091993148,-0.30846116140708935,1.0,0.0,0.0,0.0,1.0,0.0,0.0,0.0,1.0,-0.19479238986968994,0.047051422297954615,0.4706004559993744,1.2184696791468346e-07,0.0,0.0,0.0,1.2184696791468346e-07,0.0,0.0,0.0,1.2184696791468346e-07,-0.5687857000000001,0.20593965000000122,9.8851032,8.999999999999999e-08,0.0,0.0,0.0,8.999999999999999e-08,0.0,0.0,0.0,8.999999999999999e-08
1729690894.5549238,1651,1729690894,554108672,base_link,-0.03795197559631077,-0.03430863119557229,-0.9535516621216832,-0.29685315062973233,1.0,0.0,0.0,0.0,1.0,0.0,0.0,0.0,1.0,0.35301822423934937,0.1161518692970276,0.1644329726696014,1.2184696791468346e-07,0.0,0.0,0.0,1.2184696791468346e-07,0.0,0.0,0.0,1.2184696791468346e-07,-0.04903325,0.019613300000001128,9.22805765,8.999999999999999e-08,0.0,0.0,0.0,8.999999999999999e-08,0.0,0.0,0.0,8.999999999999999e-08
1729690894.656192,1652,1729690894,654106112,base_link,-0.031023298736925334,-0.044884020662325615,-0.9567245749482418,-0.2858339855838864,1.0,0.0,0.0,0.0,1.0,0.0,0.0,0.0,1.0,0.16010808944702148,0.3009970784187317,0.17887082695960996,1.2184696791468346e-07,0.0,0.0,0.0,1.2184696791468346e-07,0.0,0.0,0.0,1.2184696791468346e-07,0.20593965,0.049033250000001395,11.3953273,8.999999999999999e-08,0.0,0.0,0.0,8.999999999999999e-08,0.0,0.0,0.0,8.999999999999999e-08
1729690894.755899,1653,1729690894,754105600,base_link,-0.022569171855834857,-0.053496188860977116,-0.9604282779661257,-0.27240835732795515,1.0,0.0,0.0,0.0,1.0,0.0,0.0,0.0,1.0,0.1946815550327301,0.22729386389255526,0.2009288966655731,1.2184696791468346e-07,0.0,0.0,0.0,1.2184696791468346e-07,0.0,0.0,0.0,1.2184696791468346e-07,-0.196133,-0.3040061499999986,11.58165365,8.999999999999999e-08,0.0,0.0,0.0,8.999999999999999e-08,0.0,0.0,0.0,8.999999999999999e-08
1729690894.8559792,1654,1729690894,855105344,base_link,-0.013555334993107368,-0.059614472127846034,-0.9644756707536675,-0.2570000936389053,1.0,0.0,0.0,0.0,1.0,0.0,0.0,0.0,1.0,-0.20121027529239655,0.18947495520114901,0.24422182142734525,1.2184696791468346e-07,0.0,0.0,0.0,1.2184696791468346e-07,0.0,0.0,0.0,1.2184696791468346e-07,-0.06864655,0.15690640000000125,10.179302700000001,8.999999999999999e-08,0.0,0.0,0.0,8.999999999999999e-08,0.0,0.0,0.0,8.999999999999999e-08
1729690894.9561393,1655,1729690894,955103552,base_link,-0.009214279440810356,-0.057573919359432436,-0.9686761896411361,-0.24138512896678216,1.0,0.0,0.0,0.0,1.0,0.0,0.0,0.0,1.0,-0.03891874849796295,0.11225212365388876,0.48221084475517273,1.2184696791468346e-07,0.0,0.0,0.0,1.2184696791468346e-07,0.0,0.0,0.0,1.2184696791468346e-07,-0.8237586,0.3040061500000013,10.93441475,8.999999999999999e-08,0.0,0.0,0.0,8.999999999999999e-08,0.0,0.0,0.0,8.999999999999999e-08
1729690895.057875,1656,1729690895,53103552,base_link,-0.004836030505107057,-0.05017580513450685,-0.9731989725853178,-0.22437192593312416,1.0,0.0,0.0,0.0,1.0,0.0,0.0,0.0,1.0,-0.2709985375404358,0.08995008468627934,0.2952093482017517,1.2184696791468346e-07,0.0,0.0,0.0,1.2184696791468346e-07,0.0,0.0,0.0,1.2184696791468346e-07,0.00980665,-0.019613299999998574,11.64049355,8.999999999999999e-08,0.0,0.0,0.0,8.999999999999999e-08,0.0,0.0,0.0,8.999999999999999e-08
1729690895.1600623,1657,1729690895,158101504,base_link,-0.0003939869254378869,-0.042558324112128225,-0.977172123980284,-0.20814243666040377,1.0,0.0,0.0,0.0,1.0,0.0,0.0,0.0,1.0,-0.22914282977581024,0.001544885337352794,0.3385009765625,1.2184696791468346e-07,0.0,0.0,0.0,1.2184696791468346e-07,0.0,0.0,0.0,1.2184696791468346e-07,-0.2353596,-0.15690639999999867,10.91480145,8.999999999999999e-08,0.0,0.0,0.0,8.999999999999999e-08,0.0,0.0,0.0,8.999999999999999e-08
1729690895.2570848,1658,1729690895,253102016,base_link,-0.0008911034946462886,-0.036041769261430774,-0.9800334228856182,-0.19553691935326883,1.0,0.0,0.0,0.0,1.0,0.0,0.0,0.0,1.0,-0.09951553493738174,-0.028425870463252033,0.27569106221199036,1.2184696791468346e-07,0.0,0.0,0.0,1.2184696791468346e-07,0.0,0.0,0.0,1.2184696791468346e-07,-0.26477955,-0.00980664999999871,10.54214875,8.999999999999999e-08,0.0,0.0,0.0,8.999999999999999e-08,0.0,0.0,0.0,8.999999999999999e-08
1729690895.359083,1659,1729690895,353101248,base_link,0.0010064864032301977,-0.03641524404658473,-0.9806299235295758,-0.19245225398660853,1.0,0.0,0.0,0.0,1.0,0.0,0.0,0.0,1.0,0.12883971631526947,-0.13439629971981049,0.04991378262639047,1.2184696791468346e-07,0.0,0.0,0.0,1.2184696791468346e-07,0.0,0.0,0.0,1.2184696791468346e-07,-0.1372931,-0.04903324999999873,10.3754357,8.999999999999999e-08,0.0,0.0,0.0,8.999999999999999e-08,0.0,0.0,0.0,8.999999999999999e-08
1729690895.455965,1660,1729690895,453102528,base_link,0.0026671666725922895,-0.031305395280810146,-0.9783251466374098,-0.2046772237088033,1.0,0.0,0.0,0.0,1.0,0.0,0.0,0.0,1.0,-0.17822158336639404,-0.09055977314710621,-0.30148768424987793,1.2184696791468346e-07,0.0,0.0,0.0,1.2184696791468346e-07,0.0,0.0,0.0,1.2184696791468346e-07,-0.14709975,0.35303940000000106,8.79656505,8.999999999999999e-08,0.0,0.0,0.0,8.999999999999999e-08,0.0,0.0,0.0,8.999999999999999e-08
1729690895.5577216,1661,1729690895,554100736,base_link,0.007705410088634536,-0.02604897751914889,-0.9710496231503838,-0.23732826802778983,1.0,0.0,0.0,0.0,1.0,0.0,0.0,0.0,1.0,-0.16695530712604523,0.2739020287990569,-1.0046950578689575,1.2184696791468346e-07,0.0,0.0,0.0,1.2184696791468346e-07,0.0,0.0,0.0,1.2184696791468346e-07,0.1765197,-0.5295590999999987,10.2577559,8.999999999999999e-08,0.0,0.0,0.0,8.999999999999999e-08,0.0,0.0,0.0,8.999999999999999e-08
1729690895.6559823,1662,1729690895,654098944,base_link,0.0139864320891973,-0.028744954052081034,-0.9580300939892374,-0.2848797050422005,1.0,0.0,0.0,0.0,1.0,0.0,0.0,0.0,1.0,0.0036257989704608917,0.13522939383983598,-1.0957626104354858,1.2184696791468346e-07,0.0,0.0,0.0,1.2184696791468346e-07,0.0,0.0,0.0,1.2184696791468346e-07,-0.48052585000000003,1.1964113000000012,10.7088618,8.999999999999999e-08,0.0,0.0,0.0,8.999999999999999e-08,0.0,0.0,0.0,8.999999999999999e-08
1729690895.758062,1663,1729690895,754097408,base_link,0.01864848405945615,-0.03982989020582853,-0.9401033586913619,-0.3380406615567079,1.0,0.0,0.0,0.0,1.0,0.0,0.0,0.0,1.0,0.10269689559936523,-0.07738537341356289,-0.9440985918045044,1.2184696791468346e-07,0.0,0.0,0.0,1.2184696791468346e-07,0.0,0.0,0.0,1.2184696791468346e-07,-0.02941995,-0.7649186999999986,11.18938765,8.999999999999999e-08,0.0,0.0,0.0,8.999999999999999e-08,0.0,0.0,0.0,8.999999999999999e-08
1729690895.8627708,1664,1729690895,855098432,base_link,0.01941754181134292,-0.0394796747883217,-0.9189653044678846,-0.3918763625594959,1.0,0.0,0.0,0.0,1.0,0.0,0.0,0.0,1.0,-0.08839654922485352,-0.04480811953544631,-1.1658002138137817,1.2184696791468346e-07,0.0,0.0,0.0,1.2184696791468346e-07,0.0,0.0,0.0,1.2184696791468346e-07,-0.0392266,-0.3040061499999988,9.89490985,8.999999999999999e-08,0.0,0.0,0.0,8.999999999999999e-08,0.0,0.0,0.0,8.999999999999999e-08
1729690895.9573488,1665,1729690895,955093056,base_link,0.017696946315411036,-0.03445595081850279,-0.8956721872227356,-0.44302476068493435,1.0,0.0,0.0,0.0,1.0,0.0,0.0,0.0,1.0,-0.1744568645954132,-0.12985832989215865,-1.1364206075668335,1.2184696791468346e-07,0.0,0.0,0.0,1.2184696791468346e-07,0.0,0.0,0.0,1.2184696791468346e-07,-0.24516625,0.6668522000000012,10.2773692,8.999999999999999e-08,0.0,0.0,0.0,8.999999999999999e-08,0.0,0.0,0.0,8.999999999999999e-08
1729690896.05401,1666,1729690896,53088704,base_link,0.017183186485356442,-0.025176548623794752,-0.8721684451903845,-0.48825514100292927,1.0,0.0,0.0,0.0,1.0,0.0,0.0,0.0,1.0,0.012453831732273102,-0.14771227538585674,-0.9079808592796326,1.2184696791468346e-07,0.0,0.0,0.0,1.2184696791468346e-07,0.0,0.0,0.0,1.2184696791468346e-07,-0.48052585000000003,1.2165808405785551e-15,9.93413645,8.999999999999999e-08,0.0,0.0,0.0,8.999999999999999e-08,0.0,0.0,0.0,8.999999999999999e-08
1729690896.1570714,1667,1729690896,155086144,base_link,0.017554636784624926,-0.01631025471128295,-0.8451267362289596,-0.5340286603072903,1.0,0.0,0.0,0.0,1.0,0.0,0.0,0.0,1.0,-0.01944468915462494,-0.13525448739528667,-0.9481334090232849,1.2184696791468346e-07,0.0,0.0,0.0,1.2184696791468346e-07,0.0,0.0,0.0,1.2184696791468346e-07,0.08825985,0.06864655000000128,10.38524235,8.999999999999999e-08,0.0,0.0,0.0,8.999999999999999e-08,0.0,0.0,0.0,8.999999999999999e-08
1729690896.258809,1668,1729690896,255084608,base_link,0.019140749765321645,-0.00738232667719945,-0.8166628835727217,-0.5767502644524231,1.0,0.0,0.0,0.0,1.0,0.0,0.0,0.0,1.0,-0.3506225049495697,-0.027294943109154837,-1.096343994140625,1.2184696791468346e-07,0.0,0.0,0.0,1.2184696791468346e-07,0.0,0.0,0.0,1.2184696791468346e-07,0.0588399,-0.37265269999999884,9.3947707,8.999999999999999e-08,0.0,0.0,0.0,8.999999999999999e-08,0.0,0.0,0.0,8.999999999999999e-08
1729690896.3538942,1669,1729690896,353080512,base_link,0.018160491062905616,0.00011646524365646579,-0.7873199874400942,-0.61627706462072,1.0,0.0,0.0,0.0,1.0,0.0,0.0,0.0,1.0,0.07190466672182083,-0.19046913087368023,-0.9290676116943359,1.2184696791468346e-07,0.0,0.0,0.0,1.2184696791468346e-07,0.0,0.0,0.0,1.2184696791468346e-07,-0.73549875,-0.46091254999999876,10.16949605,8.999999999999999e-08,0.0,0.0,0.0,8.999999999999999e-08,0.0,0.0,0.0,8.999999999999999e-08
1729690896.4539886,1670,1729690896,453080000,base_link,0.01387115362126077,0.011397515147097559,-0.7566195662859367,-0.6536088430085442,1.0,0.0,0.0,0.0,1.0,0.0,0.0,0.0,1.0,-0.06567598134279251,-0.23301078379154216,-0.9138193130493164,1.2184696791468346e-07,0.0,0.0,0.0,1.2184696791468346e-07,0.0,0.0,0.0,1.2184696791468346e-07,-0.18632635,-0.8531785499999988,10.4538889,8.999999999999999e-08,0.0,0.0,0.0,8.999999999999999e-08,0.0,0.0,0.0,8.999999999999999e-08
1729690896.5549417,1671,1729690896,553079232,base_link,0.00975014658215602,0.02328485805580263,-0.7256923172342633,-0.6875561146074646,1.0,0.0,0.0,0.0,1.0,0.0,0.0,0.0,1.0,0.07237962633371353,-0.1969624459743501,-0.797325849533081,1.2184696791468346e-07,0.0,0.0,0.0,1.2184696791468346e-07,0.0,0.0,0.0,1.2184696791468346e-07,-0.38245935,-0.4412992499999987,10.60098865,8.999999999999999e-08,0.0,0.0,0.0,8.999999999999999e-08,0.0,0.0,0.0,8.999999999999999e-08
1729690896.654895,1672,1729690896,653078720,base_link,0.006113664265816514,0.033394977080307926,-0.6948183916913269,-0.7183834638843856,1.0,0.0,0.0,0.0,1.0,0.0,0.0,0.0,1.0,-0.11758073419332504,-0.16898797452449807,-0.721959114074707,1.2184696791468346e-07,0.0,0.0,0.0,1.2184696791468346e-07,0.0,0.0,0.0,1.2184696791468346e-07,0.08825985,-0.9708583499999988,10.0812362,8.999999999999999e-08,0.0,0.0,0.0,8.999999999999999e-08,0.0,0.0,0.0,8.999999999999999e-08
1729690896.755226,1673,1729690896,753078464,base_link,0.003069152596710594,0.04092306698858253,-0.6641133031876338,-0.7465047912905823,1.0,0.0,0.0,0.0,1.0,0.0,0.0,0.0,1.0,-0.006416697055101395,-0.19412885606288918,-0.7289895415306091,1.2184696791468346e-07,0.0,0.0,0.0,1.2184696791468346e-07,0.0,0.0,0.0,1.2184696791468346e-07,-0.0784532,0.019613300000000958,7.81590005,8.999999999999999e-08,0.0,0.0,0.0,8.999999999999999e-08,0.0,0.0,0.0,8.999999999999999e-08
1729690896.8563082,1674,1729690896,855076160,base_link,-0.0007847973827438077,0.04741900341983643,-0.6337595847983901,-0.772074873884593,1.0,0.0,0.0,0.0,1.0,0.0,0.0,0.0,1.0,0.17396855354309082,-0.21117584407329568,-0.5784785151481628,1.2184696791468346e-07,0.0,0.0,0.0,1.2184696791468346e-07,0.0,0.0,0.0,1.2184696791468346e-07,0.0392266,-0.3530393999999989,9.0025047,8.999999999999999e-08,0.0,0.0,0.0,8.999999999999999e-08,0.0,0.0,0.0,8.999999999999999e-08
1729690896.9742181,1675,1729690896,954070016,base_link,-0.003786194571807041,0.04913702365592101,-0.6041547408486209,-0.7953416038074694,1.0,0.0,0.0,0.0,1.0,0.0,0.0,0.0,1.0,0.030301321297883987,-0.0028304103761912394,-0.8191218972206116,1.2184696791468346e-07,0.0,0.0,0.0,1.2184696791468346e-07,0.0,0.0,0.0,1.2184696791468346e-07,0.36284605000000003,-0.657045549999999,8.24739265,8.999999999999999e-08,0.0,0.0,0.0,8.999999999999999e-08,0.0,0.0,0.0,8.999999999999999e-08
1729690897.0543866,1676,1729690897,53066432,base_link,-0.00883493862714436,0.05005092085695354,-0.5739915684187604,-0.817282404414164,1.0,0.0,0.0,0.0,1.0,0.0,0.0,0.0,1.0,-0.05346812307834625,-0.03215033933520327,-0.7994886040687561,1.2184696791468346e-07,0.0,0.0,0.0,1.2184696791468346e-07,0.0,0.0,0.0,1.2184696791468346e-07,-0.4118793,0.04903325000000117,9.60071035,8.999999999999999e-08,0.0,0.0,0.0,8.999999999999999e-08,0.0,0.0,0.0,8.999999999999999e-08
1729690897.158853,1677,1729690897,155066432,base_link,-0.010252440156506943,0.04579455973335309,-0.543353241107733,-0.838191506248654,1.0,0.0,0.0,0.0,1.0,0.0,0.0,0.0,1.0,0.1472773551940918,0.0630435645580291,-0.6230207085609436,1.2184696791468346e-07,0.0,0.0,0.0,1.2184696791468346e-07,0.0,0.0,0.0,1.2184696791468346e-07,0.0784532,0.19613300000000114,9.40457735,8.999999999999999e-08,0.0,0.0,0.0,8.999999999999999e-08,0.0,0.0,0.0,8.999999999999999e-08
1729690897.255003,1678,1729690897,254064896,base_link,-0.010847472416587883,0.04342786793209994,-0.5222957177337482,-0.8515888302849165,1.0,0.0,0.0,0.0,1.0,0.0,0.0,0.0,1.0,-0.1953834444284439,-0.02724526822566993,-0.5558927655220032,1.2184696791468346e-07,0.0,0.0,0.0,1.2184696791468346e-07,0.0,0.0,0.0,1.2184696791468346e-07,0.24516625,-0.5883989999999988,9.5712904,8.999999999999999e-08,0.0,0.0,0.0,8.999999999999999e-08,0.0,0.0,0.0,8.999999999999999e-08
1729690897.356644,1679,1729690897,355064896,base_link,-0.013223322813734277,0.046028356623791254,-0.501456055564011,-0.863856677035294,1.0,0.0,0.0,0.0,1.0,0.0,0.0,0.0,1.0,-0.2093113511800766,0.03713942691683762,-0.5541768670082092,1.2184696791468346e-07,0.0,0.0,0.0,1.2184696791468346e-07,0.0,0.0,0.0,1.2184696791468346e-07,-0.4314926,-0.8727918499999986,11.3953273,8.999999999999999e-08,0.0,0.0,0.0,8.999999999999999e-08,0.0,0.0,0.0,8.999999999999999e-08
1729690897.4549944,1680,1729690897,453067712,base_link,-0.012559426277256446,0.04896916060595809,-0.4883585093132188,-0.8711775068850806,1.0,0.0,0.0,0.0,1.0,0.0,0.0,0.0,1.0,-0.2051793336868286,-0.08404635637998584,-0.18078209459781647,1.2184696791468346e-07,0.0,0.0,0.0,1.2184696791468346e-07,0.0,0.0,0.0,1.2184696791468346e-07,-0.3530394,-0.06864654999999872,10.46369555,8.999999999999999e-08,0.0,0.0,0.0,8.999999999999999e-08,0.0,0.0,0.0,8.999999999999999e-08
1729690897.5567968,1681,1729690897,554065664,base_link,-0.014661555793180927,0.052360949852244904,-0.4775136169139879,-0.8769402005690098,1.0,0.0,0.0,0.0,1.0,0.0,0.0,0.0,1.0,0.14255569875240326,-0.1455225646495819,-0.007611954584717732,1.2184696791468346e-07,0.0,0.0,0.0,1.2184696791468346e-07,0.0,0.0,0.0,1.2184696791468346e-07,-0.4314926,-0.25497289999999906,7.65899365,8.999999999999999e-08,0.0,0.0,0.0,8.999999999999999e-08,0.0,0.0,0.0,8.999999999999999e-08
1729690897.6550837,1682,1729690897,654065920,base_link,-0.0199867594379444,0.05330223250921845,-0.4698638729687289,-0.8809014373558084,1.0,0.0,0.0,0.0,1.0,0.0,0.0,0.0,1.0,0.011906992644071579,-0.15050117671489716,0.05063915625214579,1.2184696791468346e-07,0.0,0.0,0.0,1.2184696791468346e-07,0.0,0.0,0.0,1.2184696791468346e-07,0.5099458,0.2843928500000009,7.3549875,8.999999999999999e-08,0.0,0.0,0.0,8.999999999999999e-08,0.0,0.0,0.0,8.999999999999999e-08
1729690897.7549517,1683,1729690897,754066688,base_link,-0.026225160610085514,0.05820732549461814,-0.461679333615968,-0.8847464840968033,1.0,0.0,0.0,0.0,1.0,0.0,0.0,0.0,1.0,0.23467803001403809,-0.11351467669010167,-0.38816630840301514,1.2184696791468346e-07,0.0,0.0,0.0,1.2184696791468346e-07,0.0,0.0,0.0,1.2184696791468346e-07,-0.0196133,-0.696272149999999,8.041453,8.999999999999999e-08,0.0,0.0,0.0,8.999999999999999e-08,0.0,0.0,0.0,8.999999999999999e-08
1729690897.8540626,1684,1729690897,853068992,base_link,-0.0301142572383554,0.062002323837713515,-0.38524799982527214,-0.9202351992726274,1.0,0.0,0.0,0.0,1.0,0.0,0.0,0.0,1.0,0.22232599556446075,-0.06098658964037897,-0.1544756293296814,1.2184696791468346e-07,0.0,0.0,0.0,1.2184696791468346e-07,0.0,0.0,0.0,1.2184696791468346e-07,0.4314926,-0.7551120499999986,11.1403544,8.999999999999999e-08,0.0,0.0,0.0,8.999999999999999e-08,0.0,0.0,0.0,8.999999999999999e-08
1729690897.9564037,1685,1729690897,955067712,base_link,-0.03949932342905836,0.06354485961000525,-0.3785913298767559,-0.9225348010822902,1.0,0.0,0.0,0.0,1.0,0.0,0.0,0.0,1.0,-0.16897651553153992,0.043087843805551515,-0.12215700000524521,1.2184696791468346e-07,0.0,0.0,0.0,1.2184696791468346e-07,0.0,0.0,0.0,1.2184696791468346e-07,0.22555295,-0.14709974999999886,9.18883105,8.999999999999999e-08,0.0,0.0,0.0,8.999999999999999e-08,0.0,0.0,0.0,8.999999999999999e-08
1729690898.0547023,1686,1729690898,53067968,base_link,-0.03987559631623073,0.06051379158628129,-0.3616621299744976,-0.9294883117008985,1.0,0.0,0.0,0.0,1.0,0.0,0.0,0.0,1.0,0.3104180097579956,0.07759968936443329,0.014529086649417869,1.2184696791468346e-07,0.0,0.0,0.0,1.2184696791468346e-07,0.0,0.0,0.0,1.2184696791468346e-07,0.06864655,0.02941995000000119,9.69877685,8.999999999999999e-08,0.0,0.0,0.0,8.999999999999999e-08,0.0,0.0,0.0,8.999999999999999e-08
1729690898.155401,1687,1729690898,154066432,base_link,-0.03497113695036239,0.054523413860551026,-0.34696950237653035,-0.9356368854112009,1.0,0.0,0.0,0.0,1.0,0.0,0.0,0.0,1.0,-0.018912939354777336,0.15815542638301847,-0.18626858294010165,1.2184696791468346e-07,0.0,0.0,0.0,1.2184696791468346e-07,0.0,0.0,0.0,1.2184696791468346e-07,1.02969825,-0.4216859499999988,9.71839015,8.999999999999999e-08,0.0,0.0,0.0,8.999999999999999e-08,0.0,0.0,0.0,8.999999999999999e-08
1729690898.2549052,1688,1729690898,253071040,base_link,-0.03016236936272608,0.04988508843164182,-0.34046523294344877,-0.9384482588738481,1.0,0.0,0.0,0.0,1.0,0.0,0.0,0.0,1.0,-0.2092299908399582,0.07099273800849913,-0.12426941841840745,1.2184696791468346e-07,0.0,0.0,0.0,1.2184696791468346e-07,0.0,0.0,0.0,1.2184696791468346e-07,0.4707192,0.058839900000001166,9.50264385,8.999999999999999e-08,0.0,0.0,0.0,8.999999999999999e-08,0.0,0.0,0.0,8.999999999999999e-08
1729690898.355677,1689,1729690898,354070528,base_link,-0.026092168952428524,0.04682174524543126,-0.3354907825380933,-0.94051733515311,1.0,0.0,0.0,0.0,1.0,0.0,0.0,0.0,1.0,-0.006383010186254978,0.2227155119180679,-0.1680497229099274,1.2184696791468346e-07,0.0,0.0,0.0,1.2184696791468346e-07,0.0,0.0,0.0,1.2184696791468346e-07,-0.1765197,-0.4118792999999986,11.60126695,8.999999999999999e-08,0.0,0.0,0.0,8.999999999999999e-08,0.0,0.0,0.0,8.999999999999999e-08
1729690898.4546924,1690,1729690898,453071040,base_link,-0.02288572953958839,0.04440061049777499,-0.3347680722815856,-0.9409756463117083,1.0,0.0,0.0,0.0,1.0,0.0,0.0,0.0,1.0,-0.129292294383049,0.011943565681576736,0.053764987736940384,1.2184696791468346e-07,0.0,0.0,0.0,1.2184696791468346e-07,0.0,0.0,0.0,1.2184696791468346e-07,0.4707192,-0.8041452999999986,11.73856005,8.999999999999999e-08,0.0,0.0,0.0,8.999999999999999e-08,0.0,0.0,0.0,8.999999999999999e-08
1729690898.5545115,1691,1729690898,553067968,base_link,-0.018749803875342037,0.04551070921189778,-0.3348960821573457,-0.940968561832608,1.0,0.0,0.0,0.0,1.0,0.0,0.0,0.0,1.0,-0.13200248777866364,0.04319903254508973,0.03719560429453849,1.2184696791468346e-07,0.0,0.0,0.0,1.2184696791468346e-07,0.0,0.0,0.0,1.2184696791468346e-07,0.40207265000000003,-0.04903324999999912,7.1980811000000005,8.999999999999999e-08,0.0,0.0,0.0,8.999999999999999e-08,0.0,0.0,0.0,8.999999999999999e-08
1729690898.6580527,1692,1729690898,654065664,base_link,-0.018851143771085405,0.04551210072513987,-0.33537063370813475,-0.9407974389380057,1.0,0.0,0.0,0.0,1.0,0.0,0.0,0.0,1.0,0.15141966938972473,-0.00756136421114208,-0.13427336513996124,1.2184696791468346e-07,0.0,0.0,0.0,1.2184696791468346e-07,0.0,0.0,0.0,1.2184696791468346e-07,0.5099458,-1.0002782999999988,10.002783,8.999999999999999e-08,0.0,0.0,0.0,8.999999999999999e-08,0.0,0.0,0.0,8.999999999999999e-08
1729690898.761002,1693,1729690898,753065664,base_link,-0.025162355854856912,0.04800638429022761,-0.338411020948825,-0.9394361201356838,1.0,0.0,0.0,0.0,1.0,0.0,0.0,0.0,1.0,-0.1260213553905487,-0.149319052696228,0.2354337126016617,1.2184696791468346e-07,0.0,0.0,0.0,1.2184696791468346e-07,0.0,0.0,0.0,1.2184696791468346e-07,0.59820565,0.08825985000000129,10.5323421,8.999999999999999e-08,0.0,0.0,0.0,8.999999999999999e-08,0.0,0.0,0.0,8.999999999999999e-08
1729690898.8567212,1694,1729690898,855066432,base_link,-0.022808693711011886,0.05348855715363723,-0.344156860024499,-0.9371098086365848,1.0,0.0,0.0,0.0,1.0,0.0,0.0,0.0,1.0,-0.12233120948076248,-0.10864371061325072,0.15311452746391296,1.2184696791468346e-07,0.0,0.0,0.0,1.2184696791468346e-07,0.0,0.0,0.0,1.2184696791468346e-07,0.3138128,-0.666852199999999,8.36507245,8.999999999999999e-08,0.0,0.0,0.0,8.999999999999999e-08,0.0,0.0,0.0,8.999999999999999e-08
1729690898.9543157,1695,1729690898,953066176,base_link,-0.022630902770892868,0.05803571991691061,-0.35793126194562785,-0.9316678105287906,1.0,0.0,0.0,0.0,1.0,0.0,0.0,0.0,1.0,0.011269776150584221,-0.04745830595493313,0.28629109263420105,1.2184696791468346e-07,0.0,0.0,0.0,1.2184696791468346e-07,0.0,0.0,0.0,1.2184696791468346e-07,0.3530394,-1.0591181999999986,10.99325465,8.999999999999999e-08,0.0,0.0,0.0,8.999999999999999e-08,0.0,0.0,0.0,8.999999999999999e-08
1729690899.0557015,1696,1729690899,53061056,base_link,-0.01778395176953141,0.05637445139604256,-0.3730859749611449,-0.9259117169452744,1.0,0.0,0.0,0.0,1.0,0.0,0.0,0.0,1.0,-0.31084200739860535,0.0695564523339272,0.2837683856487274,1.2184696791468346e-07,0.0,0.0,0.0,1.2184696791468346e-07,0.0,0.0,0.0,1.2184696791468346e-07,0.61781895,0.18632635000000097,7.9237732,8.999999999999999e-08,0.0,0.0,0.0,8.999999999999999e-08,0.0,0.0,0.0,8.999999999999999e-08
1729690899.155153,1697,1729690899,154060032,base_link,-0.012841911059934532,0.0519945034640748,-0.38895660226798384,-0.9196980039567328,1.0,0.0,0.0,0.0,1.0,0.0,0.0,0.0,1.0,0.11855616420507431,0.16036057472229007,0.3117881417274475,1.2184696791468346e-07,0.0,0.0,0.0,1.2184696791468346e-07,0.0,0.0,0.0,1.2184696791468346e-07,0.9610517000000001,-0.7354987499999986,11.01286795,8.999999999999999e-08,0.0,0.0,0.0,8.999999999999999e-08,0.0,0.0,0.0,8.999999999999999e-08
1729690899.2542796,1698,1729690899,253062080,base_link,-0.012140417989630585,0.04949143451934358,-0.40675068314639795,-0.9121168181325203,1.0,0.0,0.0,0.0,1.0,0.0,0.0,0.0,1.0,0.06211666762828827,-0.09311194717884057,0.6142219305038452,1.2184696791468346e-07,0.0,0.0,0.0,1.2184696791468346e-07,0.0,0.0,0.0,1.2184696791468346e-07,0.8237586,-0.9022117999999986,11.179581,8.999999999999999e-08,0.0,0.0,0.0,8.999999999999999e-08,0.0,0.0,0.0,8.999999999999999e-08
1729690899.356214,1699,1729690899,355059520,base_link,-0.012179069739176084,0.048260394368078614,-0.42212167196348965,-0.9051717509149707,1.0,0.0,0.0,0.0,1.0,0.0,0.0,0.0,1.0,-0.20769086480140686,0.08972068876028068,0.549445629119873,1.2184696791468346e-07,0.0,0.0,0.0,1.2184696791468346e-07,0.0,0.0,0.0,1.2184696791468346e-07,0.20593965,-0.25497289999999906,7.67860695,8.999999999999999e-08,0.0,0.0,0.0,8.999999999999999e-08,0.0,0.0,0.0,8.999999999999999e-08
1729690899.4555645,1700,1729690899,454052864,base_link,-0.006139965508536458,0.04661341142388774,-0.4370779671430632,-0.8981939330328772,1.0,0.0,0.0,0.0,1.0,0.0,0.0,0.0,1.0,-0.24947325885295868,0.2232833802700043,0.23652824759483335,1.2184696791468346e-07,0.0,0.0,0.0,1.2184696791468346e-07,0.0,0.0,0.0,1.2184696791468346e-07,0.08825985,0.24516625000000106,8.5317855,8.999999999999999e-08,0.0,0.0,0.0,8.999999999999999e-08,0.0,0.0,0.0,8.999999999999999e-08
1729690899.554249,1701,1729690899,553048768,base_link,-0.0013964109900077403,0.044159631552296824,-0.45258432759255784,-0.8906264106768361,1.0,0.0,0.0,0.0,1.0,0.0,0.0,0.0,1.0,-0.08558300882577896,0.015504072420299102,0.3945804238319397,1.2184696791468346e-07,0.0,0.0,0.0,1.2184696791468346e-07,0.0,0.0,0.0,1.2184696791468346e-07,0.2941995,-0.2157462999999986,11.611073600000001,8.999999999999999e-08,0.0,0.0,0.0,8.999999999999999e-08,0.0,0.0,0.0,8.999999999999999e-08
1729690899.6566124,1702,1729690899,655048512,base_link,0.002449368545767095,0.04092148305414449,-0.4669187238502288,-0.8833494994261615,1.0,0.0,0.0,0.0,1.0,0.0,0.0,0.0,1.0,0.05135516822338104,0.011767968535423336,0.4605633318424225,1.2184696791468346e-07,0.0,0.0,0.0,1.2184696791468346e-07,0.0,0.0,0.0,1.2184696791468346e-07,0.57859235,-0.7453053999999988,10.6107953,8.999999999999999e-08,0.0,0.0,0.0,8.999999999999999e-08,0.0,0.0,0.0,8.999999999999999e-08
1729690899.755846,1703,1729690899,754049536,base_link,0.003250438971689265,0.03977242815837154,-0.4806194873943689,-0.876020831340016,1.0,0.0,0.0,0.0,1.0,0.0,0.0,0.0,1.0,0.23446322977542877,-0.1636438071727752,0.5006588697433472,1.2184696791468346e-07,0.0,0.0,0.0,1.2184696791468346e-07,0.0,0.0,0.0,1.2184696791468346e-07,0.4314926,-0.4707191999999989,9.22805765,8.999999999999999e-08,0.0,0.0,0.0,8.999999999999999e-08,0.0,0.0,0.0,8.999999999999999e-08
1729690899.8548129,1704,1729690899,853051072,base_link,0.0017888675546212443,0.03888972138803619,-0.49319784224538155,-0.8690456132607384,1.0,0.0,0.0,0.0,1.0,0.0,0.0,0.0,1.0,0.014988172799348831,0.04496397823095324,0.19167691469192505,1.2184696791468346e-07,0.0,0.0,0.0,1.2184696791468346e-07,0.0,0.0,0.0,1.2184696791468346e-07,0.57859235,-0.6178189499999989,9.7674234,8.999999999999999e-08,0.0,0.0,0.0,8.999999999999999e-08,0.0,0.0,0.0,8.999999999999999e-08
1729690899.9568665,1705,1729690899,955050048,base_link,0.00034459702365745326,0.03728486694404391,-0.5047838067048251,-0.8624401593377026,1.0,0.0,0.0,0.0,1.0,0.0,0.0,0.0,1.0,0.016849860548973083,0.010754670947790168,0.18563133478164673,1.2184696791468346e-07,0.0,0.0,0.0,1.2184696791468346e-07,0.0,0.0,0.0,1.2184696791468346e-07,0.0,-0.13729309999999867,10.787315,8.999999999999999e-08,0.0,0.0,0.0,8.999999999999999e-08,0.0,0.0,0.0,8.999999999999999e-08
1729690900.0582702,1706,1729690900,55050048,base_link,-0.002150305712259093,0.03330895541937399,-0.5133199123361412,-0.8575479912363099,1.0,0.0,0.0,0.0,1.0,0.0,0.0,0.0,1.0,0.013744291849434376,0.09096483886241914,0.11420126259326933,1.2184696791468346e-07,0.0,0.0,0.0,1.2184696791468346e-07,0.0,0.0,0.0,1.2184696791468346e-07,0.0196133,-0.11767979999999878,9.93413645,8.999999999999999e-08,0.0,0.0,0.0,8.999999999999999e-08,0.0,0.0,0.0,8.999999999999999e-08
1729690900.1558402,1707,1729690900,154047488,base_link,-0.003161084642924973,0.028125292441326395,-0.5183463710920964,-0.8547022961503173,1.0,0.0,0.0,0.0,1.0,0.0,0.0,0.0,1.0,0.2214541882276535,0.05850234627723695,0.08547867834568022,1.2184696791468346e-07,0.0,0.0,0.0,1.2184696791468346e-07,0.0,0.0,0.0,1.2184696791468346e-07,-0.30400615,0.12748645000000128,10.591182,8.999999999999999e-08,0.0,0.0,0.0,8.999999999999999e-08,0.0,0.0,0.0,8.999999999999999e-08
1729690900.2598968,1708,1729690900,258043648,base_link,-0.0038014629737745747,0.023732856779516306,-0.522844980468079,-0.8520888608517752,1.0,0.0,0.0,0.0,1.0,0.0,0.0,0.0,1.0,0.20358605682849884,-0.028294784948229762,0.2333143949508667,1.2184696791468346e-07,0.0,0.0,0.0,1.2184696791468346e-07,0.0,0.0,0.0,1.2184696791468346e-07,0.61781895,-0.49033249999999895,8.7083052,8.999999999999999e-08,0.0,0.0,0.0,8.999999999999999e-08,0.0,0.0,0.0,8.999999999999999e-08
1729690900.3538384,1709,1729690900,353039808,base_link,-0.001281072814451172,0.02164423723180107,-0.5278342204509595,-0.8490706222500137,1.0,0.0,0.0,0.0,1.0,0.0,0.0,0.0,1.0,-0.04487225413322449,0.04826196283102039,0.2672369182109833,1.2184696791468346e-07,0.0,0.0,0.0,1.2184696791468346e-07,0.0,0.0,0.0,1.2184696791468346e-07,0.4707192,-0.33342609999999895,8.81617835,8.999999999999999e-08,0.0,0.0,0.0,8.999999999999999e-08,0.0,0.0,0.0,8.999999999999999e-08
1729690900.4559383,1710,1729690900,454037248,base_link,0.000415699793602334,0.019450979498059507,-0.5330686010725729,-0.8458483038587817,1.0,0.0,0.0,0.0,1.0,0.0,0.0,0.0,1.0,-0.14728371798992157,0.09036139398813249,0.059937253594398485,1.2184696791468346e-07,0.0,0.0,0.0,1.2184696791468346e-07,0.0,0.0,0.0,1.2184696791468346e-07,0.10787315,-0.6766588499999989,9.44380395,8.999999999999999e-08,0.0,0.0,0.0,8.999999999999999e-08,0.0,0.0,0.0,8.999999999999999e-08
1729690900.5564163,1711,1729690900,553029568,base_link,-0.00141595932654744,0.015625066985923634,-0.5388631037359821,-0.8422472367261855,1.0,0.0,0.0,0.0,1.0,0.0,0.0,0.0,1.0,0.1316407173871994,-0.04102855548262594,0.18347349762916565,1.2184696791468346e-07,0.0,0.0,0.0,1.2184696791468346e-07,0.0,0.0,0.0,1.2184696791468346e-07,-0.2157463,-0.12748644999999884,9.463417250000001,8.999999999999999e-08,0.0,0.0,0.0,8.999999999999999e-08,0.0,0.0,0.0,8.999999999999999e-08
1729690900.6550775,1712,1729690900,653029568,base_link,-0.0038404340007550577,0.013743868749277537,-0.5423571762546502,-0.8400268153479213,1.0,0.0,0.0,0.0,1.0,0.0,0.0,0.0,1.0,0.2564028799533844,-0.06752763688564298,0.1969892829656601,1.2184696791468346e-07,0.0,0.0,0.0,1.2184696791468346e-07,0.0,0.0,0.0,1.2184696791468346e-07,0.0,0.21574630000000108,8.6886919,8.999999999999999e-08,0.0,0.0,0.0,8.999999999999999e-08,0.0,0.0,0.0,8.999999999999999e-08
1729690900.7558227,1713,1729690900,755042880,base_link,-0.004196178683880573,0.011298788750431403,-0.5459328666691687,-0.837742224402954,1.0,0.0,0.0,0.0,1.0,0.0,0.0,0.0,1.0,-0.031906791031360626,0.11171349138021469,-0.054900199174880995,1.2184696791468346e-07,0.0,0.0,0.0,1.2184696791468346e-07,0.0,0.0,0.0,1.2184696791468346e-07,0.5687857000000001,-0.7256920999999988,9.2770909,8.999999999999999e-08,0.0,0.0,0.0,8.999999999999999e-08,0.0,0.0,0.0,8.999999999999999e-08
1729690900.8547745,1714,1729690900,854037248,base_link,-0.004202822750859636,0.011003714884230832,-0.5508707843759523,-0.8345074196558677,1.0,0.0,0.0,0.0,1.0,0.0,0.0,0.0,1.0,0.1629623919725418,-0.12318742275238033,0.31961095333099365,1.2184696791468346e-07,0.0,0.0,0.0,1.2184696791468346e-07,0.0,0.0,0.0,1.2184696791468346e-07,0.00980665,1.3919222055582877e-15,11.36590735,8.999999999999999e-08,0.0,0.0,0.0,8.999999999999999e-08,0.0,0.0,0.0,8.999999999999999e-08
1729690900.9589283,1715,1729690900,956037248,base_link,-0.003108388726237492,0.011664759746898588,-0.5554188949589847,-0.8314830860709762,1.0,0.0,0.0,0.0,1.0,0.0,0.0,0.0,1.0,-0.024829350411891937,0.06551629304885863,-0.0975850895047188,1.2184696791468346e-07,0.0,0.0,0.0,1.2184696791468346e-07,0.0,0.0,0.0,1.2184696791468346e-07,-0.06864655,-0.6080122999999985,11.67972015,8.999999999999999e-08,0.0,0.0,0.0,8.999999999999999e-08,0.0,0.0,0.0,8.999999999999999e-08
1729690901.0587583,1716,1729690901,55037248,base_link,-0.0038158671434654684,0.012926802865383035,-0.562485154072348,-0.8266975192740267,1.0,0.0,0.0,0.0,1.0,0.0,0.0,0.0,1.0,0.18105696141719818,-0.19723349809646604,0.29267385601997375,1.2184696791468346e-07,0.0,0.0,0.0,1.2184696791468346e-07,0.0,0.0,0.0,1.2184696791468346e-07,0.12748645,-0.11767979999999868,10.787315,8.999999999999999e-08,0.0,0.0,0.0,8.999999999999999e-08,0.0,0.0,0.0,8.999999999999999e-08
1729690901.1557608,1717,1729690901,153039808,base_link,-0.003445227670787669,0.014086259079240878,-0.5667621305614563,-0.8237538437378534,1.0,0.0,0.0,0.0,1.0,0.0,0.0,0.0,1.0,0.10715029388666153,-0.05263492465019226,0.010601024143397815,1.2184696791468346e-07,0.0,0.0,0.0,1.2184696791468346e-07,0.0,0.0,0.0,1.2184696791468346e-07,0.71588545,-0.3530393999999991,7.63938035,8.999999999999999e-08,0.0,0.0,0.0,8.999999999999999e-08,0.0,0.0,0.0,8.999999999999999e-08
1729690901.2558494,1718,1729690901,254039808,base_link,-0.005949981542807248,0.014832180441779943,-0.5705299778177066,-0.821121275180658,1.0,0.0,0.0,0.0,1.0,0.0,0.0,0.0,1.0,0.3098660111427307,-0.1993346810340881,0.2148646414279938,1.2184696791468346e-07,0.0,0.0,0.0,1.2184696791468346e-07,0.0,0.0,0.0,1.2184696791468346e-07,0.04903325,-0.09806649999999864,11.05209455,8.999999999999999e-08,0.0,0.0,0.0,8.999999999999999e-08,0.0,0.0,0.0,8.999999999999999e-08
1729690901.35406,1719,1729690901,353043136,base_link,-0.010725357663495456,0.016768849528529403,-0.5713557088215796,-0.8204611059553464,1.0,0.0,0.0,0.0,1.0,0.0,0.0,0.0,1.0,0.14730356633663177,-0.14758451282978058,-0.0064118141308426675,1.2184696791468346e-07,0.0,0.0,0.0,1.2184696791468346e-07,0.0,0.0,0.0,1.2184696791468346e-07,-0.28439285000000003,-0.5295590999999985,11.9444997,8.999999999999999e-08,0.0,0.0,0.0,8.999999999999999e-08,0.0,0.0,0.0,8.999999999999999e-08
1729690901.4629736,1720,1729690901,461041344,base_link,-0.017647910953073945,0.01806841864517706,-0.5704948652459051,-0.8209127189992318,1.0,0.0,0.0,0.0,1.0,0.0,0.0,0.0,1.0,0.26316192746162415,-0.029099155217409155,-0.171857088804245,1.2184696791468346e-07,0.0,0.0,0.0,1.2184696791468346e-07,0.0,0.0,0.0,1.2184696791468346e-07,0.3334261,-0.009806649999998735,10.32640245,8.999999999999999e-08,0.0,0.0,0.0,8.999999999999999e-08,0.0,0.0,0.0,8.999999999999999e-08
1729690901.5574348,1721,1729690901,554041088,base_link,-0.01930023197619413,0.018708345142332772,-0.5691636910263871,-0.8217847599492948,1.0,0.0,0.0,0.0,1.0,0.0,0.0,0.0,1.0,0.018024345859885216,-0.053366526961326585,0.13384902477264404,1.2184696791468346e-07,0.0,0.0,0.0,1.2184696791468346e-07,0.0,0.0,0.0,1.2184696791468346e-07,0.50013915,-0.5687856999999985,11.7875933,8.999999999999999e-08,0.0,0.0,0.0,8.999999999999999e-08,0.0,0.0,0.0,8.999999999999999e-08
1729690901.658868,1722,1729690901,655043904,base_link,-0.01805415076268142,0.018355321242685387,-0.5671069658757685,-0.8232416529048419,1.0,0.0,0.0,0.0,1.0,0.0,0.0,0.0,1.0,-0.21445795893669128,0.07123383134603498,-0.1937377005815506,1.2184696791468346e-07,0.0,0.0,0.0,1.2184696791468346e-07,0.0,0.0,0.0,1.2184696791468346e-07,0.1372931,0.1274864500000013,10.62060195,8.999999999999999e-08,0.0,0.0,0.0,8.999999999999999e-08,0.0,0.0,0.0,8.999999999999999e-08
1729690901.756497,1723,1729690901,754044928,base_link,-0.018213698154563397,0.01825988468253741,-0.564536802496079,-0.8250048705543611,1.0,0.0,0.0,0.0,1.0,0.0,0.0,0.0,1.0,0.08948379009962082,-0.011434799060225499,-0.09777979552745819,1.2184696791468346e-07,0.0,0.0,0.0,1.2184696791468346e-07,0.0,0.0,0.0,1.2184696791468346e-07,-0.10787315,0.18632635000000108,8.75733845,8.999999999999999e-08,0.0,0.0,0.0,8.999999999999999e-08,0.0,0.0,0.0,8.999999999999999e-08
1729690901.8552043,1724,1729690901,853045952,base_link,-0.018834799155677,0.020227103955245577,-0.5612855413252036,-0.8271605984968228,1.0,0.0,0.0,0.0,1.0,0.0,0.0,0.0,1.0,0.11207468807697296,-0.1262948215007782,0.00906397774815561,1.2184696791468346e-07,0.0,0.0,0.0,1.2184696791468346e-07,0.0,0.0,0.0,1.2184696791468346e-07,0.7060788,-0.07845319999999875,10.267562550000001,8.999999999999999e-08,0.0,0.0,0.0,8.999999999999999e-08,0.0,0.0,0.0,8.999999999999999e-08
1729690901.9560628,1725,1729690901,955045184,base_link,-0.017390306352818657,0.023545232707125125,-0.557503097389654,-0.8296586621392343,1.0,0.0,0.0,0.0,1.0,0.0,0.0,0.0,1.0,-0.2927120625972748,-0.08918429166078568,-0.03185302764177321,1.2184696791468346e-07,0.0,0.0,0.0,1.2184696791468346e-07,0.0,0.0,0.0,1.2184696791468346e-07,0.1765197,0.11767980000000135,10.9049948,8.999999999999999e-08,0.0,0.0,0.0,8.999999999999999e-08,0.0,0.0,0.0,8.999999999999999e-08
1729690902.0560195,1726,1729690902,54041856,base_link,-0.017631764145264208,0.02743497671369779,-0.5524075334418028,-0.8329359879021844,1.0,0.0,0.0,0.0,1.0,0.0,0.0,0.0,1.0,0.11849167943000793,-0.015803972259163863,-0.07007618993520737,1.2184696791468346e-07,0.0,0.0,0.0,1.2184696791468346e-07,0.0,0.0,0.0,1.2184696791468346e-07,-0.44129925000000003,-0.3922659999999989,9.1790244,8.999999999999999e-08,0.0,0.0,0.0,8.999999999999999e-08,0.0,0.0,0.0,8.999999999999999e-08
1729690902.1549773,1727,1729690902,153041600,base_link,-0.01657493378274463,0.029304205087710092,-0.5472082126363419,-0.8363191419294522,1.0,0.0,0.0,0.0,1.0,0.0,0.0,0.0,1.0,0.1055697351694107,-0.10324877500534058,0.005692226812243475,1.2184696791468346e-07,0.0,0.0,0.0,1.2184696791468346e-07,0.0,0.0,0.0,1.2184696791468346e-07,0.79433865,-0.12748644999999886,9.414384,8.999999999999999e-08,0.0,0.0,0.0,8.999999999999999e-08,0.0,0.0,0.0,8.999999999999999e-08
1729690902.2560942,1728,1729690902,254040832,base_link,-0.010792144965289827,0.0305188438768891,-0.5424865898254974,-0.839440545622481,1.0,0.0,0.0,0.0,1.0,0.0,0.0,0.0,1.0,-0.43826913833618164,0.0935428738594055,-0.13362516462802887,1.2184696791468346e-07,0.0,0.0,0.0,1.2184696791468346e-07,0.0,0.0,0.0,1.2184696791468346e-07,0.4903325,-0.49033249999999895,8.5121722,8.999999999999999e-08,0.0,0.0,0.0,8.999999999999999e-08,0.0,0.0,0.0,8.999999999999999e-08
1729690902.3551557,1729,1729690902,353042112,base_link,-0.009132231320286255,0.031227482417393263,-0.5365358561956516,-0.8432500944022379,1.0,0.0,0.0,0.0,1.0,0.0,0.0,0.0,1.0,0.1587328463792801,0.01619862765073775,-0.1109936535358429,1.2184696791468346e-07,0.0,0.0,0.0,1.2184696791468346e-07,0.0,0.0,0.0,1.2184696791468346e-07,-0.63743225,-0.3530393999999987,10.24794925,8.999999999999999e-08,0.0,0.0,0.0,8.999999999999999e-08,0.0,0.0,0.0,8.999999999999999e-08
1729690902.4591572,1730,1729690902,455039552,base_link,-0.008563126076617042,0.03172566943194816,-0.5295647246809994,-0.8476327961708584,1.0,0.0,0.0,0.0,1.0,0.0,0.0,0.0,1.0,0.10471927374601364,-0.11518748104572298,-0.09917123615741728,1.2184696791468346e-07,0.0,0.0,0.0,1.2184696791468346e-07,0.0,0.0,0.0,1.2184696791468346e-07,0.6864655,0.1569064000000012,9.75761675,8.999999999999999e-08,0.0,0.0,0.0,8.999999999999999e-08,0.0,0.0,0.0,8.999999999999999e-08
1729690902.5551362,1731,1729690902,554039296,base_link,-0.005855698415885629,0.03263605167414371,-0.5236271131982256,-0.8513020881278732,1.0,0.0,0.0,0.0,1.0,0.0,0.0,0.0,1.0,-0.22811119258403778,0.015649825334548912,-0.3251403570175171,1.2184696791468346e-07,0.0,0.0,0.0,1.2184696791468346e-07,0.0,0.0,0.0,1.2184696791468346e-07,0.5099458,-0.41187929999999895,8.62004535,8.999999999999999e-08,0.0,0.0,0.0,8.999999999999999e-08,0.0,0.0,0.0,8.999999999999999e-08
1729690902.6560402,1732,1729690902,653039040,base_link,-0.007892974514964717,0.035554605529755916,-0.5170428098070428,-0.8551843683123354,1.0,0.0,0.0,0.0,1.0,0.0,0.0,0.0,1.0,-0.10799039900302887,0.04688448458909985,-0.27759459614753723,1.2184696791468346e-07,0.0,0.0,0.0,1.2184696791468346e-07,0.0,0.0,0.0,1.2184696791468346e-07,-0.38245935,-0.6962721499999984,11.95430635,8.999999999999999e-08,0.0,0.0,0.0,8.999999999999999e-08,0.0,0.0,0.0,8.999999999999999e-08
1729690902.7550628,1733,1729690902,754038272,base_link,-0.012003180326665227,0.03466453941906009,-0.5146809325549071,-0.856596655978367,1.0,0.0,0.0,0.0,1.0,0.0,0.0,0.0,1.0,0.044041506946086884,-0.011600379832088963,-0.1297990083694458,1.2184696791468346e-07,0.0,0.0,0.0,1.2184696791468346e-07,0.0,0.0,0.0,1.2184696791468346e-07,-0.18632635,-0.5491723999999986,11.38552065,8.999999999999999e-08,0.0,0.0,0.0,8.999999999999999e-08,0.0,0.0,0.0,8.999999999999999e-08
1729690902.8570604,1734,1729690902,855037760,base_link,-0.016409619387981078,0.036112049751957156,-0.5127829957753847,-0.8576014479336399,1.0,0.0,0.0,0.0,1.0,0.0,0.0,0.0,1.0,0.019699685275554657,-0.13698390126228333,0.06287367641925813,1.2184696791468346e-07,0.0,0.0,0.0,1.2184696791468346e-07,0.0,0.0,0.0,1.2184696791468346e-07,0.0,0.39226600000000106,8.8063717,8.999999999999999e-08,0.0,0.0,0.0,8.999999999999999e-08,0.0,0.0,0.0,8.999999999999999e-08
1729690902.9551318,1735,1729690902,954036992,base_link,-0.016945920937336996,0.035604097437457446,-0.512513312092542,-0.8577734484916061,1.0,0.0,0.0,0.0,1.0,0.0,0.0,0.0,1.0,-0.024553678929805756,-0.0018812511116266227,0.01884462498128414,1.2184696791468346e-07,0.0,0.0,0.0,1.2184696791468346e-07,0.0,0.0,0.0,1.2184696791468346e-07,0.18632635,9.751862216681013e-16,7.9629998,8.999999999999999e-08,0.0,0.0,0.0,8.999999999999999e-08,0.0,0.0,0.0,8.999999999999999e-08
1729690903.0541315,1736,1729690903,53033408,base_link,-0.013276885867433953,0.03449291276651497,-0.5155545394991536,-0.8560592736909989,1.0,0.0,0.0,0.0,1.0,0.0,0.0,0.0,1.0,-0.21626083552837372,-0.007607756182551358,0.21491698920726776,1.2184696791468346e-07,0.0,0.0,0.0,1.2184696791468346e-07,0.0,0.0,0.0,1.2184696791468346e-07,0.30400615,-0.19613299999999875,10.2969825,8.999999999999999e-08,0.0,0.0,0.0,8.999999999999999e-08,0.0,0.0,0.0,8.999999999999999e-08
1729690903.1553414,1737,1729690903,154034176,base_link,-0.008296802886759953,0.030888656736304917,-0.5169968343222864,-0.8553895763028792,1.0,0.0,0.0,0.0,1.0,0.0,0.0,0.0,1.0,-0.1397782266139984,0.07031495869159701,0.25209352374076843,1.2184696791468346e-07,0.0,0.0,0.0,1.2184696791468346e-07,0.0,0.0,0.0,1.2184696791468346e-07,0.02941995,-0.18632634999999906,7.56092715,8.999999999999999e-08,0.0,0.0,0.0,8.999999999999999e-08,0.0,0.0,0.0,8.999999999999999e-08
1729690903.254295,1738,1729690903,253035968,base_link,-0.005529379681394182,0.02997375734552545,-0.5213585145609746,-0.8527932335130859,1.0,0.0,0.0,0.0,1.0,0.0,0.0,0.0,1.0,0.10294321924448013,-0.0037940479815006165,0.07303942739963531,1.2184696791468346e-07,0.0,0.0,0.0,1.2184696791468346e-07,0.0,0.0,0.0,1.2184696791468346e-07,-0.2157463,-1.049311549999999,8.9044382,8.999999999999999e-08,0.0,0.0,0.0,8.999999999999999e-08,0.0,0.0,0.0,8.999999999999999e-08
1729690903.3552957,1739,1729690903,354033920,base_link,-0.004793350043484269,0.030849940795195926,-0.5271226883911793,-0.8492155064125649,1.0,0.0,0.0,0.0,1.0,0.0,0.0,0.0,1.0,0.04762057214975357,-0.005384438671171647,0.15197458863258362,1.2184696791468346e-07,0.0,0.0,0.0,1.2184696791468346e-07,0.0,0.0,0.0,1.2184696791468346e-07,0.08825985,-0.9316317499999988,10.4931155,8.999999999999999e-08,0.0,0.0,0.0,8.999999999999999e-08,0.0,0.0,0.0,8.999999999999999e-08
1729690903.4552822,1740,1729690903,453035456,base_link,-0.004911009230125748,0.03130530229556262,-0.5327863411408511,-0.8456562982265726,1.0,0.0,0.0,0.0,1.0,0.0,0.0,0.0,1.0,-0.18968619406223297,0.10534258931875227,-0.11801639944314958,1.2184696791468346e-07,0.0,0.0,0.0,1.2184696791468346e-07,0.0,0.0,0.0,1.2184696791468346e-07,-0.10787315,0.166713050000001,8.3356525,8.999999999999999e-08,0.0,0.0,0.0,8.999999999999999e-08,0.0,0.0,0.0,8.999999999999999e-08
1729690903.556153,1741,1729690903,555032640,base_link,-0.004788168189700518,0.02997797557125375,-0.5392958654779589,-0.8415689893908967,1.0,0.0,0.0,0.0,1.0,0.0,0.0,0.0,1.0,0.07178594172000885,0.03998769447207453,0.15452158451080322,1.2184696791468346e-07,0.0,0.0,0.0,1.2184696791468346e-07,0.0,0.0,0.0,1.2184696791468346e-07,-0.196133,-0.01961329999999863,11.18938765,8.999999999999999e-08,0.0,0.0,0.0,8.999999999999999e-08,0.0,0.0,0.0,8.999999999999999e-08
1729690903.6552715,1742,1729690903,654031360,base_link,-0.004645902931375568,0.02828315701900155,-0.5466651562965952,-0.8368606129494983,1.0,0.0,0.0,0.0,1.0,0.0,0.0,0.0,1.0,-0.022970840334892273,-0.028747349977493248,0.3111461400985718,1.2184696791468346e-07,0.0,0.0,0.0,1.2184696791468346e-07,0.0,0.0,0.0,1.2184696791468346e-07,0.392266,0.4216859500000012,9.9243298,8.999999999999999e-08,0.0,0.0,0.0,8.999999999999999e-08,0.0,0.0,0.0,8.999999999999999e-08
1729690903.756497,1743,1729690903,755028032,base_link,-0.0027329396908601566,0.024762686464061566,-0.5500929383047335,-0.8347317530961627,1.0,0.0,0.0,0.0,1.0,0.0,0.0,0.0,1.0,-0.11006323993206024,0.09293098747730258,0.21516606211662292,1.2184696791468346e-07,0.0,0.0,0.0,1.2184696791468346e-07,0.0,0.0,0.0,1.2184696791468346e-07,0.3726527,0.12748645000000092,7.58054045,8.999999999999999e-08,0.0,0.0,0.0,8.999999999999999e-08,0.0,0.0,0.0,8.999999999999999e-08
1729690903.8573632,1744,1729690903,855025216,base_link,-0.005389039594500384,0.023573810698136,-0.5534484213430071,-0.8325323288703873,1.0,0.0,0.0,0.0,1.0,0.0,0.0,0.0,1.0,0.0898609310388565,0.01971331052482126,-0.15736326575279236,1.2184696791468346e-07,0.0,0.0,0.0,1.2184696791468346e-07,0.0,0.0,0.0,1.2184696791468346e-07,-0.42168595,-1.029698249999999,9.3555441,8.999999999999999e-08,0.0,0.0,0.0,8.999999999999999e-08,0.0,0.0,0.0,8.999999999999999e-08
1729690903.9580083,1745,1729690903,954024960,base_link,-0.004268414647785645,0.025502969572667518,-0.5559630577092683,-0.8308047048746963,1.0,0.0,0.0,0.0,1.0,0.0,0.0,0.0,1.0,0.13052526116371155,-0.12728227674961087,0.28213539719581604,1.2184696791468346e-07,0.0,0.0,0.0,1.2184696791468346e-07,0.0,0.0,0.0,1.2184696791468346e-07,0.18632635,-0.35303939999999884,9.67916355,8.999999999999999e-08,0.0,0.0,0.0,8.999999999999999e-08,0.0,0.0,0.0,8.999999999999999e-08
1729690904.0544078,1746,1729690904,53023168,base_link,0.00048220104074765934,0.024881751680372995,-0.5573464130690081,-0.8299070078958144,1.0,0.0,0.0,0.0,1.0,0.0,0.0,0.0,1.0,-0.21851636469364166,0.026658028364181546,0.22217682003974915,1.2184696791468346e-07,0.0,0.0,0.0,1.2184696791468346e-07,0.0,0.0,0.0,1.2184696791468346e-07,0.4511059,-0.3824593499999991,7.3746008,8.999999999999999e-08,0.0,0.0,0.0,8.999999999999999e-08,0.0,0.0,0.0,8.999999999999999e-08
1729690904.1588984,1747,1729690904,154022912,base_link,0.003937998660747367,0.026039335945495547,-0.5574240715314027,-0.8298101286604179,1.0,0.0,0.0,0.0,1.0,0.0,0.0,0.0,1.0,-0.04188019782304764,0.09040455520153043,-0.25156545639038086,1.2184696791468346e-07,0.0,0.0,0.0,1.2184696791468346e-07,0.0,0.0,0.0,1.2184696791468346e-07,0.0392266,-0.7747253499999988,10.01258965,8.999999999999999e-08,0.0,0.0,0.0,8.999999999999999e-08,0.0,0.0,0.0,8.999999999999999e-08
1729690904.2552726,1748,1729690904,253024192,base_link,0.005258922428089418,0.02679166160133883,-0.5595131549870735,-0.8283716436479134,1.0,0.0,0.0,0.0,1.0,0.0,0.0,0.0,1.0,-0.1831648349761963,0.1013644263148308,0.07788665592670439,1.2184696791468346e-07,0.0,0.0,0.0,1.2184696791468346e-07,0.0,0.0,0.0,1.2184696791468346e-07,0.3334261,-0.7060787999999989,8.5710121,8.999999999999999e-08,0.0,0.0,0.0,8.999999999999999e-08,0.0,0.0,0.0,8.999999999999999e-08
1729690904.3570452,1749,1729690904,354021376,base_link,0.004936347629812381,0.027274857035129014,-0.561703270265796,-0.8268743258914868,1.0,0.0,0.0,0.0,1.0,0.0,0.0,0.0,1.0,-0.12286245822906494,0.015801347792148576,-0.10065893083810806,1.2184696791468346e-07,0.0,0.0,0.0,1.2184696791468346e-07,0.0,0.0,0.0,1.2184696791468346e-07,-0.4118793,-0.6570455499999989,8.77695175,8.999999999999999e-08,0.0,0.0,0.0,8.999999999999999e-08,0.0,0.0,0.0,8.999999999999999e-08
1729690904.4553123,1750,1729690904,454022912,base_link,0.008115538842184262,0.0287586496818683,-0.5623633273020923,-0.8263501474577808,1.0,0.0,0.0,0.0,1.0,0.0,0.0,0.0,1.0,0.007026646286249161,0.04789977893233299,-0.007675002794712788,1.2184696791468346e-07,0.0,0.0,0.0,1.2184696791468346e-07,0.0,0.0,0.0,1.2184696791468346e-07,-0.0392266,0.08825985000000117,9.50264385,8.999999999999999e-08,0.0,0.0,0.0,8.999999999999999e-08,0.0,0.0,0.0,8.999999999999999e-08
1729690904.5564036,1751,1729690904,555021888,base_link,0.009010159538384362,0.027119368686234258,-0.5674677903827816,-0.8228995465700758,1.0,0.0,0.0,0.0,1.0,0.0,0.0,0.0,1.0,-0.20349548757076263,0.07110494375228885,0.17640730738639832,1.2184696791468346e-07,0.0,0.0,0.0,1.2184696791468346e-07,0.0,0.0,0.0,1.2184696791468346e-07,0.2941995,-0.00980664999999874,10.28717585,8.999999999999999e-08,0.0,0.0,0.0,8.999999999999999e-08,0.0,0.0,0.0,8.999999999999999e-08
1729690904.655361,1752,1729690904,654020096,base_link,0.008184044141396216,0.025057293583831144,-0.570524198506236,-0.8208576565876462,1.0,0.0,0.0,0.0,1.0,0.0,0.0,0.0,1.0,0.12110113352537155,0.04713784158229827,-0.07498691976070404,1.2184696791468346e-07,0.0,0.0,0.0,1.2184696791468346e-07,0.0,0.0,0.0,1.2184696791468346e-07,-0.5295591,-0.43149259999999895,8.7279185,8.999999999999999e-08,0.0,0.0,0.0,8.999999999999999e-08,0.0,0.0,0.0,8.999999999999999e-08
1729690904.7564266,1753,1729690904,755020352,base_link,0.0042250477527812,0.021451229050069576,-0.5741142499744036,-0.8184832446177847,1.0,0.0,0.0,0.0,1.0,0.0,0.0,0.0,1.0,0.08132590353488922,0.044286131858825684,0.002887738170102233,1.2184696791468346e-07,0.0,0.0,0.0,1.2184696791468346e-07,0.0,0.0,0.0,1.2184696791468346e-07,-0.00980665,-0.7060787999999986,11.0226746,8.999999999999999e-08,0.0,0.0,0.0,8.999999999999999e-08,0.0,0.0,0.0,8.999999999999999e-08
1729690904.8565967,1754,1729690904,854017792,base_link,0.005752192725536825,0.019238924059498463,-0.5786890625874225,-0.8153010149150872,1.0,0.0,0.0,0.0,1.0,0.0,0.0,0.0,1.0,0.0006561977788805962,0.11182428151369096,0.06239707022905348,1.2184696791468346e-07,0.0,0.0,0.0,1.2184696791468346e-07,0.0,0.0,0.0,1.2184696791468346e-07,-0.02941995,-0.7649186999999986,11.2384209,8.999999999999999e-08,0.0,0.0,0.0,8.999999999999999e-08,0.0,0.0,0.0,8.999999999999999e-08
1729690904.9546008,1755,1729690904,953017280,base_link,0.006223773005529221,0.01666569275367002,-0.5846829619080843,-0.8110667995849696,1.0,0.0,0.0,0.0,1.0,0.0,0.0,0.0,1.0,0.3229382634162903,-0.01689876243472097,0.18831153213977814,1.2184696791468346e-07,0.0,0.0,0.0,1.2184696791468346e-07,0.0,0.0,0.0,1.2184696791468346e-07,-0.08825985,-0.8727918499999986,11.28745415,8.999999999999999e-08,0.0,0.0,0.0,8.999999999999999e-08,0.0,0.0,0.0,8.999999999999999e-08
1729690905.05656,1756,1729690905,55015744,base_link,0.0027747278757848247,0.01548561912730856,-0.5900047713243215,-0.8072464718411562,1.0,0.0,0.0,0.0,1.0,0.0,0.0,0.0,1.0,0.24452297389507294,-0.07633943855762479,0.17101357877254486,1.2184696791468346e-07,0.0,0.0,0.0,1.2184696791468346e-07,0.0,0.0,0.0,1.2184696791468346e-07,-0.02941995,0.10787315000000097,7.9041599,8.999999999999999e-08,0.0,0.0,0.0,8.999999999999999e-08,0.0,0.0,0.0,8.999999999999999e-08
1729690905.155592,1757,1729690905,154016256,base_link,0.00169795709899181,0.01456802573726059,-0.5952613620810703,-0.8033982825356284,1.0,0.0,0.0,0.0,1.0,0.0,0.0,0.0,1.0,0.1374574452638626,-0.0437052547931671,0.08579203486442566,1.2184696791468346e-07,0.0,0.0,0.0,1.2184696791468346e-07,0.0,0.0,0.0,1.2184696791468346e-07,0.5491724,-0.1569063999999989,9.09076455,8.999999999999999e-08,0.0,0.0,0.0,8.999999999999999e-08,0.0,0.0,0.0,8.999999999999999e-08
1729690905.2545826,1758,1729690905,253017792,base_link,0.00025916241849270117,0.013433678770016224,-0.5991811471902995,-0.8005007320179424,1.0,0.0,0.0,0.0,1.0,0.0,0.0,0.0,1.0,0.037384361028671265,0.07983269542455673,-0.02017352357506753,1.2184696791468346e-07,0.0,0.0,0.0,1.2184696791468346e-07,0.0,0.0,0.0,1.2184696791468346e-07,0.1569064,-0.009806649999998812,9.7085835,8.999999999999999e-08,0.0,0.0,0.0,8.999999999999999e-08,0.0,0.0,0.0,8.999999999999999e-08
1729690905.3609853,1759,1729690905,354017536,base_link,0.0005126180339654985,0.008664363067587496,-0.6034215636831697,-0.7973751203276552,1.0,0.0,0.0,0.0,1.0,0.0,0.0,0.0,1.0,-0.013793965801596642,0.09528308361768721,-0.12999054789543152,1.2184696791468346e-07,0.0,0.0,0.0,1.2184696791468346e-07,0.0,0.0,0.0,1.2184696791468346e-07,-0.16671305,-0.18632634999999872,10.6107953,8.999999999999999e-08,0.0,0.0,0.0,8.999999999999999e-08,0.0,0.0,0.0,8.999999999999999e-08
1729690905.4544997,1760,1729690905,453017280,base_link,-0.001100094465220493,0.009664130756335309,-0.6061133870731643,-0.7953187765792963,1.0,0.0,0.0,0.0,1.0,0.0,0.0,0.0,1.0,-0.13571898639202118,-0.015869718044996275,-0.1203623041510582,1.2184696791468346e-07,0.0,0.0,0.0,1.2184696791468346e-07,0.0,0.0,0.0,1.2184696791468346e-07,-0.4118793,-0.08825984999999859,11.4541672,8.999999999999999e-08,0.0,0.0,0.0,8.999999999999999e-08,0.0,0.0,0.0,8.999999999999999e-08
1729690905.555903,1761,1729690905,554014464,base_link,-0.005768090913864192,0.00875407868454564,-0.6060828370891261,-0.795332439813434,1.0,0.0,0.0,0.0,1.0,0.0,0.0,0.0,1.0,0.1662447601556778,-0.09589903801679611,0.03538472950458528,1.2184696791468346e-07,0.0,0.0,0.0,1.2184696791468346e-07,0.0,0.0,0.0,1.2184696791468346e-07,-0.3726527,0.16671305000000128,10.44408225,8.999999999999999e-08,0.0,0.0,0.0,8.999999999999999e-08,0.0,0.0,0.0,8.999999999999999e-08
1729690905.6546843,1762,1729690905,653014208,base_link,-0.006656697939158177,0.006898819203244362,-0.6029764649860988,-0.7977013710274139,1.0,0.0,0.0,0.0,1.0,0.0,0.0,0.0,1.0,0.17971962690353394,0.02129057794809341,-0.025543786585330967,1.2184696791468346e-07,0.0,0.0,0.0,1.2184696791468346e-07,0.0,0.0,0.0,1.2184696791468346e-07,0.36284605000000003,-0.09806649999999893,8.71811185,8.999999999999999e-08,0.0,0.0,0.0,8.999999999999999e-08,0.0,0.0,0.0,8.999999999999999e-08
1729690905.758539,1763,1729690905,755015232,base_link,-0.005957123433452729,0.005074686167722514,-0.598817108302419,-0.800847570418383,1.0,0.0,0.0,0.0,1.0,0.0,0.0,0.0,1.0,-0.03868073225021362,0.03389815986156463,-0.042438596487045295,1.2184696791468346e-07,0.0,0.0,0.0,1.2184696791468346e-07,0.0,0.0,0.0,1.2184696791468346e-07,0.28439285000000003,-0.5099457999999988,10.179302700000001,8.999999999999999e-08,0.0,0.0,0.0,8.999999999999999e-08,0.0,0.0,0.0,8.999999999999999e-08
1729690905.855846,1764,1729690905,854013952,base_link,-0.004074829406738422,0.004800212831379101,-0.5955864249099526,-0.8032665586124328,1.0,0.0,0.0,0.0,1.0,0.0,0.0,0.0,1.0,-0.02272665500640869,0.05302840471267698,-0.15161605179309845,1.2184696791468346e-07,0.0,0.0,0.0,1.2184696791468346e-07,0.0,0.0,0.0,1.2184696791468346e-07,-0.22555295,-0.6570455499999988,10.38524235,8.999999999999999e-08,0.0,0.0,0.0,8.999999999999999e-08,0.0,0.0,0.0,8.999999999999999e-08
1729690905.955559,1765,1729690905,954014464,base_link,-0.0037424813145455755,0.005885419990076358,-0.5923369427772991,-0.805660165259766,1.0,0.0,0.0,0.0,1.0,0.0,0.0,0.0,1.0,0.1547020822763443,-0.0166890434920788,-0.1326713114976883,1.2184696791468346e-07,0.0,0.0,0.0,1.2184696791468346e-07,0.0,0.0,0.0,1.2184696791468346e-07,0.04903325,-0.7845319999999986,11.62088025,8.999999999999999e-08,0.0,0.0,0.0,8.999999999999999e-08,0.0,0.0,0.0,8.999999999999999e-08
1729690906.0563436,1766,1729690906,53010624,base_link,-0.0052838666222813505,0.007284556011364348,-0.589323041708078,-0.8078473670868613,1.0,0.0,0.0,0.0,1.0,0.0,0.0,0.0,1.0,0.14521516859531403,-0.010185394436121004,-0.14631399512290955,1.2184696791468346e-07,0.0,0.0,0.0,1.2184696791468346e-07,0.0,0.0,0.0,1.2184696791468346e-07,0.2549729,-0.8041452999999986,11.05209455,8.999999999999999e-08,0.0,0.0,0.0,8.999999999999999e-08,0.0,0.0,0.0,8.999999999999999e-08
1729690906.1584687,1767,1729690906,155011136,base_link,-0.003735632486329137,0.009950600270271356,-0.5878323322710574,-0.8089129617832548,1.0,0.0,0.0,0.0,1.0,0.0,0.0,0.0,1.0,0.0016496991738677025,0.0280819274485111,-0.2053382694721222,1.2184696791468346e-07,0.0,0.0,0.0,1.2184696791468346e-07,0.0,0.0,0.0,1.2184696791468346e-07,0.18632635,-0.7060787999999986,10.8657682,8.999999999999999e-08,0.0,0.0,0.0,8.999999999999999e-08,0.0,0.0,0.0,8.999999999999999e-08
1729690906.2567744,1768,1729690906,254018048,base_link,-0.0028795165215799875,0.010823882763540823,-0.5891573937687484,-0.8079406644761352,1.0,0.0,0.0,0.0,1.0,0.0,0.0,0.0,1.0,0.17755289375782013,-0.024877376854419694,0.12009178102016449,1.2184696791468346e-07,0.0,0.0,0.0,1.2184696791468346e-07,0.0,0.0,0.0,1.2184696791468346e-07,-0.0196133,-0.6668521999999986,11.60126695,8.999999999999999e-08,0.0,0.0,0.0,8.999999999999999e-08,0.0,0.0,0.0,8.999999999999999e-08
1729690906.354756,1769,1729690906,353019328,base_link,-0.00011163942401549621,0.01289189826232036,-0.5924931101574784,-0.8054723464599831,1.0,0.0,0.0,0.0,1.0,0.0,0.0,0.0,1.0,-0.13019947707653046,-0.01265145279467103,0.23848667740821838,1.2184696791468346e-07,0.0,0.0,0.0,1.2184696791468346e-07,0.0,0.0,0.0,1.2184696791468346e-07,0.10787315,-0.5295590999999988,9.6693569,8.999999999999999e-08,0.0,0.0,0.0,8.999999999999999e-08,0.0,0.0,0.0,8.999999999999999e-08
1729690906.4556246,1770,1729690906,454016256,base_link,-0.0003308501741262822,0.013506273924754978,-0.5975657069616669,-0.8017061163333078,1.0,0.0,0.0,0.0,1.0,0.0,0.0,0.0,1.0,0.15633782744407654,-0.03812912106513975,0.16605764627456665,1.2184696791468346e-07,0.0,0.0,0.0,1.2184696791468346e-07,0.0,0.0,0.0,1.2184696791468346e-07,-0.06864655,-0.8629851999999989,9.463417250000001,8.999999999999999e-08,0.0,0.0,0.0,8.999999999999999e-08,0.0,0.0,0.0,8.999999999999999e-08
1729690906.554801,1771,1729690906,553016512,base_link,-0.0017687354545065904,0.014837023557780061,-0.6031907271961181,-0.7974570088296021,1.0,0.0,0.0,0.0,1.0,0.0,0.0,0.0,1.0,0.17197191715240479,-0.038584344089031206,0.1347687542438507,1.2184696791468346e-07,0.0,0.0,0.0,1.2184696791468346e-07,0.0,0.0,0.0,1.2184696791468346e-07,0.3726527,-0.7845319999999986,11.07170785,8.999999999999999e-08,0.0,0.0,0.0,8.999999999999999e-08,0.0,0.0,0.0,8.999999999999999e-08
1729690906.6547515,1772,1729690906,653010624,base_link,-0.003856494090191571,0.016129675986826006,-0.6079625573201766,-0.7937924728180554,1.0,0.0,0.0,0.0,1.0,0.0,0.0,0.0,1.0,-0.08829639852046967,0.03706872090697288,-0.05588927865028382,1.2184696791468346e-07,0.0,0.0,0.0,1.2184696791468346e-07,0.0,0.0,0.0,1.2184696791468346e-07,0.57859235,-0.42168594999999887,9.26728425,8.999999999999999e-08,0.0,0.0,0.0,8.999999999999999e-08,0.0,0.0,0.0,8.999999999999999e-08
1729690906.754818,1773,1729690906,753006784,base_link,-0.004778556460499647,0.01803387647056166,-0.6121877712880694,-0.7904923006474792,1.0,0.0,0.0,0.0,1.0,0.0,0.0,0.0,1.0,-0.2196844071149826,0.05080200731754303,-0.017220959067344672,1.2184696791468346e-07,0.0,0.0,0.0,1.2184696791468346e-07,0.0,0.0,0.0,1.2184696791468346e-07,-0.1765197,-0.6178189499999986,11.522813750000001,8.999999999999999e-08,0.0,0.0,0.0,8.999999999999999e-08,0.0,0.0,0.0,8.999999999999999e-08
1729690906.8588066,1774,1729690906,857004224,base_link,-0.0070194980847131825,0.017710788878479353,-0.6143698219359448,-0.7887881695983631,1.0,0.0,0.0,0.0,1.0,0.0,0.0,0.0,1.0,0.2076224684715271,-0.021921878680586808,0.0472591258585453,1.2184696791468346e-07,0.0,0.0,0.0,1.2184696791468346e-07,0.0,0.0,0.0,1.2184696791468346e-07,-0.4511059,0.029419950000001333,10.8853815,8.999999999999999e-08,0.0,0.0,0.0,8.999999999999999e-08,0.0,0.0,0.0,8.999999999999999e-08
1729690906.9565299,1775,1729690906,952995520,base_link,-0.006247218287438442,0.020070602087907976,-0.6173549501405062,-0.7864038458276456,1.0,0.0,0.0,0.0,1.0,0.0,0.0,0.0,1.0,-0.21204955875873566,-0.06139029562473295,0.16415216028690338,1.2184696791468346e-07,0.0,0.0,0.0,1.2184696791468346e-07,0.0,0.0,0.0,1.2184696791468346e-07,-0.30400615,-0.5982056499999986,12.0425662,8.999999999999999e-08,0.0,0.0,0.0,8.999999999999999e-08,0.0,0.0,0.0,8.999999999999999e-08
1729690907.0539312,1776,1729690907,52995520,base_link,-0.0075070824119393064,0.027346557366251845,-0.6204746802676114,-0.7837135833074989,1.0,0.0,0.0,0.0,1.0,0.0,0.0,0.0,1.0,-0.17440223693847656,-0.048524565994739526,0.02876048162579537,1.2184696791468346e-07,0.0,0.0,0.0,1.2184696791468346e-07,0.0,0.0,0.0,1.2184696791468346e-07,-0.55897905,-0.7158854499999989,9.6693569,8.999999999999999e-08,0.0,0.0,0.0,8.999999999999999e-08,0.0,0.0,0.0,8.999999999999999e-08
1729690907.1576715,1777,1729690907,153987584,base_link,-0.008539761072358844,0.02819054150120969,-0.622331371453554,-0.7821994822009499,1.0,0.0,0.0,0.0,1.0,0.0,0.0,0.0,1.0,0.13562054932117462,0.005320061929523955,0.0844985693693161,1.2184696791468346e-07,0.0,0.0,0.0,1.2184696791468346e-07,0.0,0.0,0.0,1.2184696791468346e-07,-0.2941995,0.029419950000001197,9.7870367,8.999999999999999e-08,0.0,0.0,0.0,8.999999999999999e-08,0.0,0.0,0.0,8.999999999999999e-08
1729690907.258831,1778,1729690907,256981952,base_link,-0.006665199669226743,0.028351968642541674,-0.6229878893722769,-0.7816890882460477,1.0,0.0,0.0,0.0,1.0,0.0,0.0,0.0,1.0,-0.24325542151927948,0.10188153386116026,-0.09042438864707948,1.2184696791468346e-07,0.0,0.0,0.0,1.2184696791468346e-07,0.0,0.0,0.0,1.2184696791468346e-07,0.3726527,-0.6570455499999988,9.6889702,8.999999999999999e-08,0.0,0.0,0.0,8.999999999999999e-08,0.0,0.0,0.0,8.999999999999999e-08
1729690907.354877,1779,1729690907,352976576,base_link,-0.004096239919352975,0.026827293559892777,-0.6241396522452372,-0.7808413485683049,1.0,0.0,0.0,0.0,1.0,0.0,0.0,0.0,1.0,-0.07125603407621384,0.11681287735700606,-0.10561921447515489,1.2184696791468346e-07,0.0,0.0,0.0,1.2184696791468346e-07,0.0,0.0,0.0,1.2184696791468346e-07,-0.26477955,0.02941995000000125,10.2185293,8.999999999999999e-08,0.0,0.0,0.0,8.999999999999999e-08,0.0,0.0,0.0,8.999999999999999e-08
1729690907.4569178,1780,1729690907,454973760,base_link,-0.003910562624806529,0.02575461347978303,-0.6263122454933365,-0.7791369446570732,1.0,0.0,0.0,0.0,1.0,0.0,0.0,0.0,1.0,-0.13052722811698914,0.08204483240842819,-0.004667964763939391,1.2184696791468346e-07,0.0,0.0,0.0,1.2184696791468346e-07,0.0,0.0,0.0,1.2184696791468346e-07,-0.30400615,-0.5001391499999985,11.76798,8.999999999999999e-08,0.0,0.0,0.0,8.999999999999999e-08,0.0,0.0,0.0,8.999999999999999e-08
1729690907.5548627,1781,1729690907,552975552,base_link,-0.0018159171833145636,0.026086425700190107,-0.6283810602203869,-0.777466040412875,1.0,0.0,0.0,0.0,1.0,0.0,0.0,0.0,1.0,-0.11816465854644775,0.006941369269043211,0.029400773346424103,1.2184696791468346e-07,0.0,0.0,0.0,1.2184696791468346e-07,0.0,0.0,0.0,1.2184696791468346e-07,0.1765197,0.06864655000000094,7.71783355,8.999999999999999e-08,0.0,0.0,0.0,8.999999999999999e-08,0.0,0.0,0.0,8.999999999999999e-08
1729690907.6627824,1782,1729690907,660972736,base_link,-0.0016908015237689126,0.02581971300218151,-0.6309290946609866,-0.7754088993047217,1.0,0.0,0.0,0.0,1.0,0.0,0.0,0.0,1.0,-0.05138491094112396,0.05402725189924239,-0.10279001295566559,1.2184696791468346e-07,0.0,0.0,0.0,1.2184696791468346e-07,0.0,0.0,0.0,1.2184696791468346e-07,0.2941995,-0.411879299999999,8.1591328,8.999999999999999e-08,0.0,0.0,0.0,8.999999999999999e-08,0.0,0.0,0.0,8.999999999999999e-08
1729690907.754888,1783,1729690907,753974272,base_link,0.0004135633229755909,0.026223451042728597,-0.6342850909123245,-0.7726542454598512,1.0,0.0,0.0,0.0,1.0,0.0,0.0,0.0,1.0,-0.07442206144332886,0.019765224307775508,0.09769631922245026,1.2184696791468346e-07,0.0,0.0,0.0,1.2184696791468346e-07,0.0,0.0,0.0,1.2184696791468346e-07,0.0196133,-0.06864654999999871,10.56176205,8.999999999999999e-08,0.0,0.0,0.0,8.999999999999999e-08,0.0,0.0,0.0,8.999999999999999e-08
1729690907.8539617,1784,1729690907,852972224,base_link,0.00024763850628118825,0.026319406168715833,-0.6362022101364176,-0.771073261987234,1.0,0.0,0.0,0.0,1.0,0.0,0.0,0.0,1.0,-0.1632494330406189,0.03502688556909561,-0.0071778926067054315,1.2184696791468346e-07,0.0,0.0,0.0,1.2184696791468346e-07,0.0,0.0,0.0,1.2184696791468346e-07,0.0784532,0.2255529500000011,9.11037785,8.999999999999999e-08,0.0,0.0,0.0,8.999999999999999e-08,0.0,0.0,0.0,8.999999999999999e-08
1729690907.9569712,1785,1729690907,954972480,base_link,-0.0017378775529921927,0.02840946592595676,-0.6363971978443247,-0.770836226836352,1.0,0.0,0.0,0.0,1.0,0.0,0.0,0.0,1.0,0.19000683724880219,-0.1746753752231598,0.07677077502012256,1.2184696791468346e-07,0.0,0.0,0.0,1.2184696791468346e-07,0.0,0.0,0.0,1.2184696791468346e-07,0.4903325,-0.5393657499999989,9.80665,8.999999999999999e-08,0.0,0.0,0.0,8.999999999999999e-08,0.0,0.0,0.0,8.999999999999999e-08
1729690908.0573556,1786,1729690908,53966080,base_link,-0.006011548544506928,0.03008649739185335,-0.6346188303170155,-0.772216034646944,1.0,0.0,0.0,0.0,1.0,0.0,0.0,0.0,1.0,-0.015033903531730175,-0.011732089333236235,-0.14356696605682373,1.2184696791468346e-07,0.0,0.0,0.0,1.2184696791468346e-07,0.0,0.0,0.0,1.2184696791468346e-07,-0.14709975,-0.8139519499999986,11.50320045,8.999999999999999e-08,0.0,0.0,0.0,8.999999999999999e-08,0.0,0.0,0.0,8.999999999999999e-08
1729690908.1550186,1787,1729690908,152962752,base_link,-0.010459462127915079,0.026636912697193132,-0.6323900897146839,-0.7741213399491134,1.0,0.0,0.0,0.0,1.0,0.0,0.0,0.0,1.0,-0.0298428013920784,0.03992781043052671,-0.15465997159481049,1.2184696791468346e-07,0.0,0.0,0.0,1.2184696791468346e-07,0.0,0.0,0.0,1.2184696791468346e-07,-0.04903325,0.26477955000000114,9.32612415,8.999999999999999e-08,0.0,0.0,0.0,8.999999999999999e-08,0.0,0.0,0.0,8.999999999999999e-08
1729690908.2558775,1788,1729690908,253960960,base_link,-0.012860132186403554,0.023595292262362816,-0.6307447061593466,-0.7755249801490351,1.0,0.0,0.0,0.0,1.0,0.0,0.0,0.0,1.0,0.28467509150505066,-0.09298457205295561,0.11204040795564653,1.2184696791468346e-07,0.0,0.0,0.0,1.2184696791468346e-07,0.0,0.0,0.0,1.2184696791468346e-07,-0.30400615,-0.12748644999999875,10.1400761,8.999999999999999e-08,0.0,0.0,0.0,8.999999999999999e-08,0.0,0.0,0.0,8.999999999999999e-08
1729690908.3571618,1789,1729690908,354961984,base_link,-0.009838739068423938,0.022105228915749127,-0.628667328293135,-0.7772978505083475,1.0,0.0,0.0,0.0,1.0,0.0,0.0,0.0,1.0,0.04154690355062485,0.09428460896015166,-0.16596947610378265,1.2184696791468346e-07,0.0,0.0,0.0,1.2184696791468346e-07,0.0,0.0,0.0,1.2184696791468346e-07,0.55897905,-0.5982056499999989,8.91424485,8.999999999999999e-08,0.0,0.0,0.0,8.999999999999999e-08,0.0,0.0,0.0,8.999999999999999e-08
1729690908.4561036,1790,1729690908,453963264,base_link,-0.005445640296176326,0.023920696645418692,-0.6313457705877022,-0.7751133228340119,1.0,0.0,0.0,0.0,1.0,0.0,0.0,0.0,1.0,-0.30619436502456665,0.05080252885818483,0.1377563327550888,1.2184696791468346e-07,0.0,0.0,0.0,1.2184696791468346e-07,0.0,0.0,0.0,1.2184696791468346e-07,-0.06864655,-0.6080122999999987,10.9638347,8.999999999999999e-08,0.0,0.0,0.0,8.999999999999999e-08,0.0,0.0,0.0,8.999999999999999e-08
1729690908.5563498,1791,1729690908,552963008,base_link,-0.0021170312073588667,0.025779352109533072,-0.6334514915128209,-0.7733499538267667,1.0,0.0,0.0,0.0,1.0,0.0,0.0,0.0,1.0,-0.18809659779071808,0.042455006390810006,-0.046390116214752204,1.2184696791468346e-07,0.0,0.0,0.0,1.2184696791468346e-07,0.0,0.0,0.0,1.2184696791468346e-07,-0.50013915,-0.7453053999999988,10.62060195,8.999999999999999e-08,0.0,0.0,0.0,8.999999999999999e-08,0.0,0.0,0.0,8.999999999999999e-08
1729690908.6570535,1792,1729690908,654959680,base_link,-0.002355913220135774,0.02380544972900975,-0.6357563073098574,-0.7715190651901176,1.0,0.0,0.0,0.0,1.0,0.0,0.0,0.0,1.0,0.06545871496200562,-0.016464160755276673,0.05354822427034378,1.2184696791468346e-07,0.0,0.0,0.0,1.2184696791468346e-07,0.0,0.0,0.0,1.2184696791468346e-07,-0.3138128,-0.10787314999999877,10.0616229,8.999999999999999e-08,0.0,0.0,0.0,8.999999999999999e-08,0.0,0.0,0.0,8.999999999999999e-08
1729690908.7574468,1793,1729690908,753960448,base_link,-0.004639508314024658,0.02245663058892858,-0.6378287312691552,-0.7698367906723973,1.0,0.0,0.0,0.0,1.0,0.0,0.0,0.0,1.0,0.11284762620925903,-0.09592743963003157,0.1441527158021927,1.2184696791468346e-07,0.0,0.0,0.0,1.2184696791468346e-07,0.0,0.0,0.0,1.2184696791468346e-07,-0.55897905,-0.20593964999999878,9.8458766,8.999999999999999e-08,0.0,0.0,0.0,8.999999999999999e-08,0.0,0.0,0.0,8.999999999999999e-08
1729690908.8551066,1794,1729690908,852956352,base_link,-0.005534892938610275,0.02292300273371801,-0.6384251588423943,-0.7693225704884081,1.0,0.0,0.0,0.0,1.0,0.0,0.0,0.0,1.0,0.12408971786499023,-0.07531699538230895,0.15223127603530884,1.2184696791468346e-07,0.0,0.0,0.0,1.2184696791468346e-07,0.0,0.0,0.0,1.2184696791468346e-07,-0.5491724,0.1961330000000012,9.65955025,8.999999999999999e-08,0.0,0.0,0.0,8.999999999999999e-08,0.0,0.0,0.0,8.999999999999999e-08
1729690908.955974,1795,1729690908,953954560,base_link,-0.0026632875315932337,0.022732813957121897,-0.6395366366380089,-0.7684198178514516,1.0,0.0,0.0,0.0,1.0,0.0,0.0,0.0,1.0,0.11412569135427475,0.08756037801504137,0.08109125494956969,1.2184696791468346e-07,0.0,0.0,0.0,1.2184696791468346e-07,0.0,0.0,0.0,1.2184696791468346e-07,0.4118793,-0.31381279999999895,8.5710121,8.999999999999999e-08,0.0,0.0,0.0,8.999999999999999e-08,0.0,0.0,0.0,8.999999999999999e-08
1729690909.0551019,1796,1729690909,53950720,base_link,-0.00015021115600999938,0.020336542471032188,-0.6414432831192833,-0.7669008521432791,1.0,0.0,0.0,0.0,1.0,0.0,0.0,0.0,1.0,0.04725289344787598,0.02610711380839349,0.09775573760271072,1.2184696791468346e-07,0.0,0.0,0.0,1.2184696791468346e-07,0.0,0.0,0.0,1.2184696791468346e-07,0.26477955,-0.8139519499999988,10.395049,8.999999999999999e-08,0.0,0.0,0.0,8.999999999999999e-08,0.0,0.0,0.0,8.999999999999999e-08
1729690909.1547697,1797,1729690909,152946112,base_link,-0.0014849804006147086,0.020081314131575715,-0.6429893912108734,-0.7656103306814956,1.0,0.0,0.0,0.0,1.0,0.0,0.0,0.0,1.0,-0.00029604602605104446,-0.02425594627857208,0.021310014650225643,1.2184696791468346e-07,0.0,0.0,0.0,1.2184696791468346e-07,0.0,0.0,0.0,1.2184696791468346e-07,-0.0196133,-0.9806649999999988,10.5715687,8.999999999999999e-08,0.0,0.0,0.0,8.999999999999999e-08,0.0,0.0,0.0,8.999999999999999e-08
1729690909.2560225,1798,1729690909,254946112,base_link,-0.004602055744151037,0.019382310120509245,-0.642402019950789,-0.7661088642617746,1.0,0.0,0.0,0.0,1.0,0.0,0.0,0.0,1.0,0.04922149330377579,-0.0461590997874737,-0.14426934719085693,1.2184696791468346e-07,0.0,0.0,0.0,1.2184696791468346e-07,0.0,0.0,0.0,1.2184696791468346e-07,-0.12748645,-0.5982056499999987,10.3165958,8.999999999999999e-08,0.0,0.0,0.0,8.999999999999999e-08,0.0,0.0,0.0,8.999999999999999e-08
1729690909.355013,1799,1729690909,352945856,base_link,-0.00667837675941502,0.01730849618793374,-0.6412251433278569,-0.767128496933689,1.0,0.0,0.0,0.0,1.0,0.0,0.0,0.0,1.0,0.05918078124523163,0.03899346292018889,-0.10384964197874069,1.2184696791468346e-07,0.0,0.0,0.0,1.2184696791468346e-07,0.0,0.0,0.0,1.2184696791468346e-07,0.0,-0.6962721499999988,9.81645665,8.999999999999999e-08,0.0,0.0,0.0,8.999999999999999e-08,0.0,0.0,0.0,8.999999999999999e-08
1729690909.456997,1800,1729690909,454944064,base_link,-0.006599352042585427,0.0164322594583607,-0.6407203163807083,-0.7675701307233863,1.0,0.0,0.0,0.0,1.0,0.0,0.0,0.0,1.0,-0.06087936460971832,0.05709612369537353,-0.03085793554782868,1.2184696791468346e-07,0.0,0.0,0.0,1.2184696791468346e-07,0.0,0.0,0.0,1.2184696791468346e-07,-0.0784532,-0.23535959999999875,10.2185293,8.999999999999999e-08,0.0,0.0,0.0,8.999999999999999e-08,0.0,0.0,0.0,8.999999999999999e-08
1729690909.555138,1801,1729690909,552945344,base_link,-0.002113957363920798,0.016036917985782526,-0.6408860324705623,-0.767465596512262,1.0,0.0,0.0,0.0,1.0,0.0,0.0,0.0,1.0,-0.3242170512676239,0.1315699964761734,-0.05009232088923456,1.2184696791468346e-07,0.0,0.0,0.0,1.2184696791468346e-07,0.0,0.0,0.0,1.2184696791468346e-07,-0.2549729,-0.7060787999999989,9.60071035,8.999999999999999e-08,0.0,0.0,0.0,8.999999999999999e-08,0.0,0.0,0.0,8.999999999999999e-08
1729690909.6572375,1802,1729690909,654943296,base_link,0.0005614289465182942,0.015664838524759504,-0.6406283682415882,-0.767691078126906,1.0,0.0,0.0,0.0,1.0,0.0,0.0,0.0,1.0,-0.27387872338294983,0.11201108247041702,-0.00029871216975153864,1.2184696791468346e-07,0.0,0.0,0.0,1.2184696791468346e-07,0.0,0.0,0.0,1.2184696791468346e-07,-0.588399,-0.37265269999999867,10.65982855,8.999999999999999e-08,0.0,0.0,0.0,8.999999999999999e-08,0.0,0.0,0.0,8.999999999999999e-08
1729690909.7561815,1803,1729690909,753943296,base_link,0.0038900001931703233,0.014850719370902727,-0.6398287429190281,-0.768364173922314,1.0,0.0,0.0,0.0,1.0,0.0,0.0,0.0,1.0,-0.21217520534992218,0.11631851643323897,-0.147970587015152,1.2184696791468346e-07,0.0,0.0,0.0,1.2184696791468346e-07,0.0,0.0,0.0,1.2184696791468346e-07,-0.5295591,0.13729310000000117,9.551677100000001,8.999999999999999e-08,0.0,0.0,0.0,8.999999999999999e-08,0.0,0.0,0.0,8.999999999999999e-08
1729690909.8570666,1804,1729690909,855941248,base_link,0.002714798372405124,0.013650288994679228,-0.6382213933662294,-0.7697270636594686,1.0,0.0,0.0,0.0,1.0,0.0,0.0,0.0,1.0,-0.10783537477254868,0.06645476818084715,-0.13739271461963654,1.2184696791468346e-07,0.0,0.0,0.0,1.2184696791468346e-07,0.0,0.0,0.0,1.2184696791468346e-07,-0.63743225,-0.21574629999999867,10.73828175,8.999999999999999e-08,0.0,0.0,0.0,8.999999999999999e-08,0.0,0.0,0.0,8.999999999999999e-08
1729690909.9560518,1805,1729690909,953938432,base_link,0.0014331701297647108,0.014253062084000968,-0.6383274511546313,-0.7696316400376485,1.0,0.0,0.0,0.0,1.0,0.0,0.0,0.0,1.0,0.07976339757442474,-0.12031786888837813,0.09208764880895616,1.2184696791468346e-07,0.0,0.0,0.0,1.2184696791468346e-07,0.0,0.0,0.0,1.2184696791468346e-07,-0.0980665,-0.08825984999999877,10.14988275,8.999999999999999e-08,0.0,0.0,0.0,8.999999999999999e-08,0.0,0.0,0.0,8.999999999999999e-08
1729690910.0550876,1806,1729690910,52934336,base_link,0.0016419356658890266,0.015791045420789827,-0.6389104493188813,-0.7691172762868695,1.0,0.0,0.0,0.0,1.0,0.0,0.0,0.0,1.0,-0.07483314722776413,-0.036128453910350786,0.10261926800012589,1.2184696791468346e-07,0.0,0.0,0.0,1.2184696791468346e-07,0.0,0.0,0.0,1.2184696791468346e-07,0.8041453000000001,-0.0882598499999988,9.8262633,8.999999999999999e-08,0.0,0.0,0.0,8.999999999999999e-08,0.0,0.0,0.0,8.999999999999999e-08
1729690910.1560543,1807,1729690910,154932288,base_link,0.0019008843233495347,0.016416806381272502,-0.6401045882908861,-0.7681100124044629,1.0,0.0,0.0,0.0,1.0,0.0,0.0,0.0,1.0,-0.10932488739490509,-0.03833933174610135,0.2526185214519501,1.2184696791468346e-07,0.0,0.0,0.0,1.2184696791468346e-07,0.0,0.0,0.0,1.2184696791468346e-07,-0.2745862,0.18632635000000122,10.002783,8.999999999999999e-08,0.0,0.0,0.0,8.999999999999999e-08,0.0,0.0,0.0,8.999999999999999e-08
1729690910.2553551,1808,1729690910,253932288,base_link,-0.001093520547573803,0.017031409788827615,-0.6423627810544628,-0.7662106712969962,1.0,0.0,0.0,0.0,1.0,0.0,0.0,0.0,1.0,0.3022865653038025,-0.12092206627130507,0.0788514018058777,1.2184696791468346e-07,0.0,0.0,0.0,1.2184696791468346e-07,0.0,0.0,0.0,1.2184696791468346e-07,0.04903325,-0.5295590999999991,8.237586,8.999999999999999e-08,0.0,0.0,0.0,8.999999999999999e-08,0.0,0.0,0.0,8.999999999999999e-08
1729690910.356343,1809,1729690910,353930240,base_link,-0.0030740495121739657,0.017674634471738834,-0.643751899394848,-0.7650239535736203,1.0,0.0,0.0,0.0,1.0,0.0,0.0,0.0,1.0,0.2517280578613281,-0.12096007168292996,0.18188786506652835,1.2184696791468346e-07,0.0,0.0,0.0,1.2184696791468346e-07,0.0,0.0,0.0,1.2184696791468346e-07,-0.0392266,0.24516625000000097,7.89435325,8.999999999999999e-08,0.0,0.0,0.0,8.999999999999999e-08,0.0,0.0,0.0,8.999999999999999e-08
1729690910.4557061,1810,1729690910,453930752,base_link,-0.0009176620768588594,0.01729013396850706,-0.643808458695743,-0.7649907696668474,1.0,0.0,0.0,0.0,1.0,0.0,0.0,0.0,1.0,0.06966930627822876,-0.06935005635023114,0.23942628502845764,1.2184696791468346e-07,0.0,0.0,0.0,1.2184696791468346e-07,0.0,0.0,0.0,1.2184696791468346e-07,0.51975245,-0.15690639999999897,8.4533323,8.999999999999999e-08,0.0,0.0,0.0,8.999999999999999e-08,0.0,0.0,0.0,8.999999999999999e-08
1729690910.5563254,1811,1729690910,554930752,base_link,0.0004251772128240504,0.018617270705747445,-0.6440662711705567,-0.7647429991809417,1.0,0.0,0.0,0.0,1.0,0.0,0.0,0.0,1.0,-0.09922167658805847,-0.05201381444931029,0.10418912768363953,1.2184696791468346e-07,0.0,0.0,0.0,1.2184696791468346e-07,0.0,0.0,0.0,1.2184696791468346e-07,0.2549729,-0.48052584999999903,7.6884136000000005,8.999999999999999e-08,0.0,0.0,0.0,8.999999999999999e-08,0.0,0.0,0.0,8.999999999999999e-08
1729690910.6557724,1812,1729690910,653929472,base_link,-0.0015825805312695495,0.019932522583572265,-0.6433872650653871,-0.7652796986291998,1.0,0.0,0.0,0.0,1.0,0.0,0.0,0.0,1.0,0.06138455122709274,-0.02208466455340388,-0.193180114030838,1.2184696791468346e-07,0.0,0.0,0.0,1.2184696791468346e-07,0.0,0.0,0.0,1.2184696791468346e-07,-0.2157463,-1.1473780499999988,10.03220295,8.999999999999999e-08,0.0,0.0,0.0,8.999999999999999e-08,0.0,0.0,0.0,8.999999999999999e-08
1729690910.7542746,1813,1729690910,752925376,base_link,-0.003600521334542334,0.022648614421287263,-0.6431661606742193,-0.765383149980779,1.0,0.0,0.0,0.0,1.0,0.0,0.0,0.0,1.0,0.03934464231133461,0.020415002480149255,-0.11626855283975601,1.2184696791468346e-07,0.0,0.0,0.0,1.2184696791468346e-07,0.0,0.0,0.0,1.2184696791468346e-07,0.0980665,-0.8433718999999986,11.07170785,8.999999999999999e-08,0.0,0.0,0.0,8.999999999999999e-08,0.0,0.0,0.0,8.999999999999999e-08
1729690910.8575137,1814,1729690910,853923840,base_link,-0.003133456449872344,0.023478367316813905,-0.6448654823230376,-0.7639289609820337,1.0,0.0,0.0,0.0,1.0,0.0,0.0,0.0,1.0,-0.334652841091156,0.012088239192962652,0.04868348687887192,1.2184696791468346e-07,0.0,0.0,0.0,1.2184696791468346e-07,0.0,0.0,0.0,1.2184696791468346e-07,0.0784532,0.02941995000000121,9.87529655,8.999999999999999e-08,0.0,0.0,0.0,8.999999999999999e-08,0.0,0.0,0.0,8.999999999999999e-08
1729690910.9541998,1815,1729690910,952924608,base_link,-0.0037279000291266275,0.024877628654226453,-0.6452611744331423,-0.7635477870592495,1.0,0.0,0.0,0.0,1.0,0.0,0.0,0.0,1.0,-0.15506327152252197,0.03896469250321388,-0.021212058141827587,1.2184696791468346e-07,0.0,0.0,0.0,1.2184696791468346e-07,0.0,0.0,0.0,1.2184696791468346e-07,-0.75511205,-0.2255529499999988,9.65955025,8.999999999999999e-08,0.0,0.0,0.0,8.999999999999999e-08,0.0,0.0,0.0,8.999999999999999e-08
1729690911.0562265,1816,1729690911,54922816,base_link,-0.003661150711324715,0.026733015832092293,-0.6484211607796107,-0.7608034832288901,1.0,0.0,0.0,0.0,1.0,0.0,0.0,0.0,1.0,0.1583925038576126,-0.04964943230152129,0.13360752165317535,1.2184696791468346e-07,0.0,0.0,0.0,1.2184696791468346e-07,0.0,0.0,0.0,1.2184696791468346e-07,0.0,-0.2353595999999988,9.6497436,8.999999999999999e-08,0.0,0.0,0.0,8.999999999999999e-08,0.0,0.0,0.0,8.999999999999999e-08
1729690911.1543355,1817,1729690911,152923840,base_link,-0.004384027969874738,0.027426968655635577,-0.6517061690505562,-0.757962803118049,1.0,0.0,0.0,0.0,1.0,0.0,0.0,0.0,1.0,0.22377470135688782,-0.1390544921159744,0.22233670949935916,1.2184696791468346e-07,0.0,0.0,0.0,1.2184696791468346e-07,0.0,0.0,0.0,1.2184696791468346e-07,0.53936575,-0.8041452999999987,10.75789505,8.999999999999999e-08,0.0,0.0,0.0,8.999999999999999e-08,0.0,0.0,0.0,8.999999999999999e-08
1729690911.2569292,1818,1729690911,253924352,base_link,-0.0024825499777012105,0.02762733435528545,-0.652866616055979,-0.7569648267797153,1.0,0.0,0.0,0.0,1.0,0.0,0.0,0.0,1.0,-0.10983914136886597,0.13352024555206296,-0.18149647116661075,1.2184696791468346e-07,0.0,0.0,0.0,1.2184696791468346e-07,0.0,0.0,0.0,1.2184696791468346e-07,0.392266,-0.48052584999999887,8.97308475,8.999999999999999e-08,0.0,0.0,0.0,8.999999999999999e-08,0.0,0.0,0.0,8.999999999999999e-08
1729690911.3561397,1819,1729690911,352926144,base_link,-0.003296490252256262,0.02667543908737261,-0.6541623908736665,-0.7558763923208353,1.0,0.0,0.0,0.0,1.0,0.0,0.0,0.0,1.0,-0.231559619307518,0.1553489565849304,-0.12887647747993472,1.2184696791468346e-07,0.0,0.0,0.0,1.2184696791468346e-07,0.0,0.0,0.0,1.2184696791468346e-07,-0.392266,-0.7060787999999986,11.75817335,8.999999999999999e-08,0.0,0.0,0.0,8.999999999999999e-08,0.0,0.0,0.0,8.999999999999999e-08
1729690911.4542587,1820,1729690911,452926400,base_link,-0.0038385035893991025,0.02544189036783103,-0.6554329390104233,-0.7548149697540876,1.0,0.0,0.0,0.0,1.0,0.0,0.0,0.0,1.0,-0.05899132043123245,0.05345262587070465,0.028275543823838227,1.2184696791468346e-07,0.0,0.0,0.0,1.2184696791468346e-07,0.0,0.0,0.0,1.2184696791468346e-07,-0.5687857000000001,-0.22555294999999864,11.0815145,8.999999999999999e-08,0.0,0.0,0.0,8.999999999999999e-08,0.0,0.0,0.0,8.999999999999999e-08
1729690911.5552917,1821,1729690911,553926400,base_link,-0.0012409680530449578,0.023626490494426146,-0.6564970580432693,-0.7539574667882403,1.0,0.0,0.0,0.0,1.0,0.0,0.0,0.0,1.0,-0.01702250726521015,0.03981478884816172,0.18351173400878906,1.2184696791468346e-07,0.0,0.0,0.0,1.2184696791468346e-07,0.0,0.0,0.0,1.2184696791468346e-07,-0.0784532,0.1863263500000012,9.639936950000001,8.999999999999999e-08,0.0,0.0,0.0,8.999999999999999e-08,0.0,0.0,0.0,8.999999999999999e-08
1729690911.6544957,1822,1729690911,652926656,base_link,0.0007001817516711343,0.022156841995806573,-0.6571683611442469,-0.753417765392662,1.0,0.0,0.0,0.0,1.0,0.0,0.0,0.0,1.0,0.09849964082241058,0.0895821377635002,-0.06220536679029466,1.2184696791468346e-07,0.0,0.0,0.0,1.2184696791468346e-07,0.0,0.0,0.0,1.2184696791468346e-07,-0.1569064,-0.9120184499999989,9.40457735,8.999999999999999e-08,0.0,0.0,0.0,8.999999999999999e-08,0.0,0.0,0.0,8.999999999999999e-08
1729690911.756364,1823,1729690911,754925632,base_link,0.004203989397765456,0.023060860661736612,-0.657833020263447,-0.7527989377182692,1.0,0.0,0.0,0.0,1.0,0.0,0.0,0.0,1.0,-0.18639042973518372,0.07545693963766097,-0.12362879514694215,1.2184696791468346e-07,0.0,0.0,0.0,1.2184696791468346e-07,0.0,0.0,0.0,1.2184696791468346e-07,0.3334261,-0.7453053999999986,11.36590735,8.999999999999999e-08,0.0,0.0,0.0,8.999999999999999e-08,0.0,0.0,0.0,8.999999999999999e-08
1729690911.8555253,1824,1729690911,853918720,base_link,0.0031378619506599917,0.02265952309684954,-0.6585309095428455,-0.7522059166292662,1.0,0.0,0.0,0.0,1.0,0.0,0.0,0.0,1.0,-0.11750426888465881,0.0135139124467969,0.03696846589446068,1.2184696791468346e-07,0.0,0.0,0.0,1.2184696791468346e-07,0.0,0.0,0.0,1.2184696791468346e-07,-0.50013915,-0.039226599999998696,10.6696352,8.999999999999999e-08,0.0,0.0,0.0,8.999999999999999e-08,0.0,0.0,0.0,8.999999999999999e-08
1729690911.9543793,1825,1729690911,952917952,base_link,0.0022766114835400925,0.022815811185583998,-0.6590085971476465,-0.7517858236795821,1.0,0.0,0.0,0.0,1.0,0.0,0.0,0.0,1.0,-0.057133596390485764,-0.01027334295213221,0.12261896580457687,1.2184696791468346e-07,0.0,0.0,0.0,1.2184696791468346e-07,0.0,0.0,0.0,1.2184696791468346e-07,-0.28439285000000003,-0.08825984999999893,8.7279185,8.999999999999999e-08,0.0,0.0,0.0,8.999999999999999e-08,0.0,0.0,0.0,8.999999999999999e-08
1729690912.055528,1826,1729690912,53915904,base_link,0.003337614294396206,0.021342815222840122,-0.6587571288896912,-0.7520454705044081,1.0,0.0,0.0,0.0,1.0,0.0,0.0,0.0,1.0,0.1571773737668991,-0.09823249280452725,0.227702796459198,1.2184696791468346e-07,0.0,0.0,0.0,1.2184696791468346e-07,0.0,0.0,0.0,1.2184696791468346e-07,0.0392266,0.019613300000001055,8.62004535,8.999999999999999e-08,0.0,0.0,0.0,8.999999999999999e-08,0.0,0.0,0.0,8.999999999999999e-08
1729690912.1565077,1827,1729690912,154913600,base_link,0.0025405667679588833,0.021594749797754696,-0.6557231249797397,-0.7546882771505562,1.0,0.0,0.0,0.0,1.0,0.0,0.0,0.0,1.0,0.04101152718067169,0.013657462783157806,-0.15205501019954681,1.2184696791468346e-07,0.0,0.0,0.0,1.2184696791468346e-07,0.0,0.0,0.0,1.2184696791468346e-07,0.12748645,-0.441299249999999,8.28661925,8.999999999999999e-08,0.0,0.0,0.0,8.999999999999999e-08,0.0,0.0,0.0,8.999999999999999e-08
1729690912.2555387,1828,1729690912,253911296,base_link,0.003463458632362828,0.01801483634896346,-0.652500690038328,-0.7575660496782626,1.0,0.0,0.0,0.0,1.0,0.0,0.0,0.0,1.0,-0.0073945242911577225,0.16264811158180234,-0.11751980334520341,1.2184696791468346e-07,0.0,0.0,0.0,1.2184696791468346e-07,0.0,0.0,0.0,1.2184696791468346e-07,-0.06864655,-0.8924051499999988,10.591182,8.999999999999999e-08,0.0,0.0,0.0,8.999999999999999e-08,0.0,0.0,0.0,8.999999999999999e-08
1729690912.3545482,1829,1729690912,352906688,base_link,0.008140685585894477,0.017815600454576194,-0.6512131346623459,-0.758642067685332,1.0,0.0,0.0,0.0,1.0,0.0,0.0,0.0,1.0,-0.33866438269615173,0.06043731793761251,-0.1446845531463623,1.2184696791468346e-07,0.0,0.0,0.0,1.2184696791468346e-07,0.0,0.0,0.0,1.2184696791468346e-07,-0.02941995,-0.5099457999999988,10.2381426,8.999999999999999e-08,0.0,0.0,0.0,8.999999999999999e-08,0.0,0.0,0.0,8.999999999999999e-08
1729690912.4544072,1830,1729690912,452905408,base_link,0.0075075002631714485,0.01941561457854523,-0.6506919260822688,-0.7590564463079693,1.0,0.0,0.0,0.0,1.0,0.0,0.0,0.0,1.0,-0.13344715535640717,-0.025365598499774933,0.00696287211030722,1.2184696791468346e-07,0.0,0.0,0.0,1.2184696791468346e-07,0.0,0.0,0.0,1.2184696791468346e-07,-0.1765197,-0.6570455499999984,12.13082605,8.999999999999999e-08,0.0,0.0,0.0,8.999999999999999e-08,0.0,0.0,0.0,8.999999999999999e-08
1729690912.5555694,1831,1729690912,553902336,base_link,0.00580591045558116,0.024401780332073034,-0.6526424460901405,-0.7572507392415574,1.0,0.0,0.0,0.0,1.0,0.0,0.0,0.0,1.0,0.0802873969078064,-0.08814096450805663,0.09144368767738344,1.2184696791468346e-07,0.0,0.0,0.0,1.2184696791468346e-07,0.0,0.0,0.0,1.2184696791468346e-07,-0.06864655,-0.5589790499999988,9.56148375,8.999999999999999e-08,0.0,0.0,0.0,8.999999999999999e-08,0.0,0.0,0.0,8.999999999999999e-08
1729690912.6575086,1832,1729690912,653913344,base_link,0.003153066666947122,0.02519278536124516,-0.6553752558592629,-0.7548765831205398,1.0,0.0,0.0,0.0,1.0,0.0,0.0,0.0,1.0,0.15887904167175293,-0.03767715394496917,0.04885775595903397,1.2184696791468346e-07,0.0,0.0,0.0,1.2184696791468346e-07,0.0,0.0,0.0,1.2184696791468346e-07,0.4903325,-0.5687856999999988,9.81645665,8.999999999999999e-08,0.0,0.0,0.0,8.999999999999999e-08,0.0,0.0,0.0,8.999999999999999e-08
1729690912.7562616,1833,1729690912,752925888,base_link,0.0030835701111239905,0.02487879727195169,-0.6569149643104445,-0.7535477866112261,1.0,0.0,0.0,0.0,1.0,0.0,0.0,0.0,1.0,-0.03146165981888771,0.13065169751644132,-0.17500886321067813,1.2184696791468346e-07,0.0,0.0,0.0,1.2184696791468346e-07,0.0,0.0,0.0,1.2184696791468346e-07,0.32361945000000003,-1.1473780499999988,10.69905515,8.999999999999999e-08,0.0,0.0,0.0,8.999999999999999e-08,0.0,0.0,0.0,8.999999999999999e-08
1729690912.8564298,1834,1729690912,854918208,base_link,0.000923432433963601,0.02472201772234096,-0.6591540682088473,-0.7516008804385493,1.0,0.0,0.0,0.0,1.0,0.0,0.0,0.0,1.0,-0.02520599588751793,0.0017750775441527466,0.08158612251281738,1.2184696791468346e-07,0.0,0.0,0.0,1.2184696791468346e-07,0.0,0.0,0.0,1.2184696791468346e-07,0.10787315,-1.0787314999999986,11.2384209,8.999999999999999e-08,0.0,0.0,0.0,8.999999999999999e-08,0.0,0.0,0.0,8.999999999999999e-08
1729690912.95714,1835,1729690912,953909760,base_link,0.002499036379622479,0.025610895109034738,-0.6599711203519245,-0.7508501562697532,1.0,0.0,0.0,0.0,1.0,0.0,0.0,0.0,1.0,0.055110469460487366,0.0029304437339305804,-0.06136317178606987,1.2184696791468346e-07,0.0,0.0,0.0,1.2184696791468346e-07,0.0,0.0,0.0,1.2184696791468346e-07,0.18632635,-0.2157462999999988,9.69877685,8.999999999999999e-08,0.0,0.0,0.0,8.999999999999999e-08,0.0,0.0,0.0,8.999999999999999e-08
1729690913.0560992,1836,1729690913,52903360,base_link,0.0012463802035074002,0.027748950160498796,-0.6617687195506009,-0.7491933022429771,1.0,0.0,0.0,0.0,1.0,0.0,0.0,0.0,1.0,-0.12248478829860687,0.02954941615462301,-0.15636394917964935,1.2184696791468346e-07,0.0,0.0,0.0,1.2184696791468346e-07,0.0,0.0,0.0,1.2184696791468346e-07,0.3530394,-0.9610516999999986,11.0619012,8.999999999999999e-08,0.0,0.0,0.0,8.999999999999999e-08,0.0,0.0,0.0,8.999999999999999e-08
1729690913.1614778,1837,1729690913,159896704,base_link,0.00537423957087489,0.029107892455382124,-0.6647129734849107,-0.7465122309960427,1.0,0.0,0.0,0.0,1.0,0.0,0.0,0.0,1.0,-0.2906518876552582,0.08848316222429276,0.006121720653027286,1.2184696791468346e-07,0.0,0.0,0.0,1.2184696791468346e-07,0.0,0.0,0.0,1.2184696791468346e-07,-0.196133,-0.1372930999999987,10.7088618,8.999999999999999e-08,0.0,0.0,0.0,8.999999999999999e-08,0.0,0.0,0.0,8.999999999999999e-08
1729690913.2596865,1838,1729690913,257894656,base_link,0.005259405856476197,0.029954849075174296,-0.666642362864583,-0.7447570111796503,1.0,0.0,0.0,0.0,1.0,0.0,0.0,0.0,1.0,-0.0999632477760315,0.044178798794746385,-0.09395294636487961,1.2184696791468346e-07,0.0,0.0,0.0,1.2184696791468346e-07,0.0,0.0,0.0,1.2184696791468346e-07,-0.5295591,-0.9512450499999987,10.24794925,8.999999999999999e-08,0.0,0.0,0.0,8.999999999999999e-08,0.0,0.0,0.0,8.999999999999999e-08
1729690913.3585694,1839,1729690913,356894400,base_link,0.007542311255622224,0.03250323845962859,-0.6672899266912938,-0.7440502716664297,1.0,0.0,0.0,0.0,1.0,0.0,0.0,0.0,1.0,0.24294690787792206,-0.09138345718383788,0.08565185964107515,1.2184696791468346e-07,0.0,0.0,0.0,1.2184696791468346e-07,0.0,0.0,0.0,1.2184696791468346e-07,0.0196133,-0.4314925999999986,11.26784085,8.999999999999999e-08,0.0,0.0,0.0,8.999999999999999e-08,0.0,0.0,0.0,8.999999999999999e-08
1729690913.4575922,1840,1729690913,455894144,base_link,0.007532050703474834,0.0345774148208097,-0.6663981711702653,-0.7447557640310248,1.0,0.0,0.0,0.0,1.0,0.0,0.0,0.0,1.0,0.12167869508266449,-0.016537023708224307,-0.07976553589105606,1.2184696791468346e-07,0.0,0.0,0.0,1.2184696791468346e-07,0.0,0.0,0.0,1.2184696791468346e-07,0.61781895,-0.8041452999999987,9.99297635,8.999999999999999e-08,0.0,0.0,0.0,8.999999999999999e-08,0.0,0.0,0.0,8.999999999999999e-08
1729690913.5573337,1841,1729690913,554892352,base_link,0.004332233800154342,0.035087874192296135,-0.6659860847089978,-0.7451259006429357,1.0,0.0,0.0,0.0,1.0,0.0,0.0,0.0,1.0,-0.21502500772476196,0.014349461533129215,-0.00508410017937422,1.2184696791468346e-07,0.0,0.0,0.0,1.2184696791468346e-07,0.0,0.0,0.0,1.2184696791468346e-07,0.1569064,-0.9512450499999987,9.97336305,8.999999999999999e-08,0.0,0.0,0.0,8.999999999999999e-08,0.0,0.0,0.0,8.999999999999999e-08
1729690913.6546373,1842,1729690913,652893376,base_link,0.00331892214979893,0.03585367214849369,-0.6638839413850698,-0.74696827999605,1.0,0.0,0.0,0.0,1.0,0.0,0.0,0.0,1.0,-0.014242933131754398,0.02961577661335465,-0.26173198223114014,1.2184696791468346e-07,0.0,0.0,0.0,1.2184696791468346e-07,0.0,0.0,0.0,1.2184696791468346e-07,0.28439285000000003,-1.1669913499999987,10.1204628,8.999999999999999e-08,0.0,0.0,0.0,8.999999999999999e-08,0.0,0.0,0.0,8.999999999999999e-08
1729690913.759915,1843,1729690913,756892608,base_link,0.0021683566976143116,0.03831055813231861,-0.6628347534288888,-0.7477818458692927,1.0,0.0,0.0,0.0,1.0,0.0,0.0,0.0,1.0,0.03608035296201706,0.03724623844027517,-0.18312503397464752,1.2184696791468346e-07,0.0,0.0,0.0,1.2184696791468346e-07,0.0,0.0,0.0,1.2184696791468346e-07,0.32361945000000003,-0.7158854499999989,8.6690786,8.999999999999999e-08,0.0,0.0,0.0,8.999999999999999e-08,0.0,0.0,0.0,8.999999999999999e-08
1729690913.855751,1844,1729690913,853891840,base_link,0.0014483242411630606,0.038672339437576225,-0.6632269384341255,-0.7474171396580451,1.0,0.0,0.0,0.0,1.0,0.0,0.0,0.0,1.0,-0.1016445979475975,-0.0017359722405671859,0.17572848498821259,1.2184696791468346e-07,0.0,0.0,0.0,1.2184696791468346e-07,0.0,0.0,0.0,1.2184696791468346e-07,-0.4707192,-0.7747253499999986,11.4933938,8.999999999999999e-08,0.0,0.0,0.0,8.999999999999999e-08,0.0,0.0,0.0,8.999999999999999e-08
1729690913.955347,1845,1729690913,952895424,base_link,0.0022661655666075167,0.039790290010892904,-0.661174129328833,-0.7491731228632892,1.0,0.0,0.0,0.0,1.0,0.0,0.0,0.0,1.0,-0.08568340539932251,0.09670534729957578,-0.28061577677726746,1.2184696791468346e-07,0.0,0.0,0.0,1.2184696791468346e-07,0.0,0.0,0.0,1.2184696791468346e-07,0.3530394,-0.19613299999999875,10.24794925,8.999999999999999e-08,0.0,0.0,0.0,8.999999999999999e-08,0.0,0.0,0.0,8.999999999999999e-08
1729690914.0571275,1846,1729690914,53889280,base_link,0.002810191667342367,0.039858591255285084,-0.6602554141640691,-0.7499774553898071,1.0,0.0,0.0,0.0,1.0,0.0,0.0,0.0,1.0,0.3635703921318054,-0.08293318748474121,0.029009608551859866,1.2184696791468346e-07,0.0,0.0,0.0,1.2184696791468346e-07,0.0,0.0,0.0,1.2184696791468346e-07,0.00980665,-0.8041452999999985,12.26811915,8.999999999999999e-08,0.0,0.0,0.0,8.999999999999999e-08,0.0,0.0,0.0,8.999999999999999e-08
1729690914.1568954,1847,1729690914,152890304,base_link,0.0019393072192832297,0.04080600807346575,-0.6605918817660915,-0.7496328931799565,1.0,0.0,0.0,0.0,1.0,0.0,0.0,0.0,1.0,-0.11100369691848755,-0.01636996679008005,0.171556755900383,1.2184696791468346e-07,0.0,0.0,0.0,1.2184696791468346e-07,0.0,0.0,0.0,1.2184696791468346e-07,-0.4707192,-1.2062179499999985,11.13054775,8.999999999999999e-08,0.0,0.0,0.0,8.999999999999999e-08,0.0,0.0,0.0,8.999999999999999e-08
1729690914.2568479,1848,1729690914,254888256,base_link,0.0028975553793143243,0.042013308308853525,-0.6624179150618099,-0.7479498592171364,1.0,0.0,0.0,0.0,1.0,0.0,0.0,0.0,1.0,-0.18381263315677643,0.046764157712459564,-0.008411998860538011,1.2184696791468346e-07,0.0,0.0,0.0,1.2184696791468346e-07,0.0,0.0,0.0,1.2184696791468346e-07,0.0784532,-1.127764749999999,9.1790244,8.999999999999999e-08,0.0,0.0,0.0,8.999999999999999e-08,0.0,0.0,0.0,8.999999999999999e-08
1729690914.3560896,1849,1729690914,353886464,base_link,0.004591015191080685,0.04402898084399935,-0.6655972011776539,-0.744997139061505,1.0,0.0,0.0,0.0,1.0,0.0,0.0,0.0,1.0,0.24109604954719543,-0.06105879694223401,0.2155386358499527,1.2184696791468346e-07,0.0,0.0,0.0,1.2184696791468346e-07,0.0,0.0,0.0,1.2184696791468346e-07,-0.00980665,-1.0002782999999988,8.81617835,8.999999999999999e-08,0.0,0.0,0.0,8.999999999999999e-08,0.0,0.0,0.0,8.999999999999999e-08
1729690914.4547837,1850,1729690914,452886976,base_link,0.008158953150213229,0.04440632616046887,-0.6693164634500723,-0.7416043294339041,1.0,0.0,0.0,0.0,1.0,0.0,0.0,0.0,1.0,-0.24264687299728394,0.09608612209558488,0.1049022078514099,1.2184696791468346e-07,0.0,0.0,0.0,1.2184696791468346e-07,0.0,0.0,0.0,1.2184696791468346e-07,0.71588545,-1.0689248499999988,8.85540495,8.999999999999999e-08,0.0,0.0,0.0,8.999999999999999e-08,0.0,0.0,0.0,8.999999999999999e-08
1729690914.5569966,1851,1729690914,554885696,base_link,0.011720544561160468,0.042118997715340695,-0.6757252990471332,-0.7358559227826514,1.0,0.0,0.0,0.0,1.0,0.0,0.0,0.0,1.0,-0.011700565926730633,0.03152022883296016,0.22644305229187012,1.2184696791468346e-07,0.0,0.0,0.0,1.2184696791468346e-07,0.0,0.0,0.0,1.2184696791468346e-07,-0.2745862,-0.8629851999999989,8.97308475,8.999999999999999e-08,0.0,0.0,0.0,8.999999999999999e-08,0.0,0.0,0.0,8.999999999999999e-08
1729690914.6548707,1852,1729690914,653888256,base_link,0.00982143286770507,0.0421168880110746,-0.6819753091795235,-0.7300954628472779,1.0,0.0,0.0,0.0,1.0,0.0,0.0,0.0,1.0,0.06583481281995773,-0.031517680734395974,0.07498098909854889,1.2184696791468346e-07,0.0,0.0,0.0,1.2184696791468346e-07,0.0,0.0,0.0,1.2184696791468346e-07,0.48052585000000003,-1.2944777999999986,10.28717585,8.999999999999999e-08,0.0,0.0,0.0,8.999999999999999e-08,0.0,0.0,0.0,8.999999999999999e-08
1729690914.7539477,1853,1729690914,752889024,base_link,0.01666897172118435,0.0452796633410941,-0.6879976759201595,-0.7241071021595731,1.0,0.0,0.0,0.0,1.0,0.0,0.0,0.0,1.0,-0.18664976954460144,0.12285364419221878,-0.005626150406897083,1.2184696791468346e-07,0.0,0.0,0.0,1.2184696791468346e-07,0.0,0.0,0.0,1.2184696791468346e-07,0.5099458,-0.40207264999999875,10.30678915,8.999999999999999e-08,0.0,0.0,0.0,8.999999999999999e-08,0.0,0.0,0.0,8.999999999999999e-08
1729690914.855003,1854,1729690914,852889280,base_link,0.01956449147060185,0.045800961542524075,-0.6935778115281199,-0.7186580006867943,1.0,0.0,0.0,0.0,1.0,0.0,0.0,0.0,1.0,-0.18188700079917908,0.1410951018333435,0.09510495513677596,1.2184696791468346e-07,0.0,0.0,0.0,1.2184696791468346e-07,0.0,0.0,0.0,1.2184696791468346e-07,-0.196133,-1.1277647499999985,10.8853815,8.999999999999999e-08,0.0,0.0,0.0,8.999999999999999e-08,0.0,0.0,0.0,8.999999999999999e-08
1729690914.9580588,1855,1729690914,954886464,base_link,0.022903515051438207,0.044860778535900855,-0.6960237482940304,-0.7162498735484492,1.0,0.0,0.0,0.0,1.0,0.0,0.0,0.0,1.0,0.1451951563358307,-0.10117455571889876,0.16617898643016815,1.2184696791468346e-07,0.0,0.0,0.0,1.2184696791468346e-07,0.0,0.0,0.0,1.2184696791468346e-07,-0.06864655,-0.32361944999999886,9.14960445,8.999999999999999e-08,0.0,0.0,0.0,8.999999999999999e-08,0.0,0.0,0.0,8.999999999999999e-08
1729690915.0582592,1856,1729690915,53885184,base_link,0.018609479877488757,0.04413459649053724,-0.6946473363888126,-0.7177540683961564,1.0,0.0,0.0,0.0,1.0,0.0,0.0,0.0,1.0,-0.028162237256765366,0.03556075319647787,-0.19637219607830048,1.2184696791468346e-07,0.0,0.0,0.0,1.2184696791468346e-07,0.0,0.0,0.0,1.2184696791468346e-07,0.02941995,-1.108151449999999,8.99269805,8.999999999999999e-08,0.0,0.0,0.0,8.999999999999999e-08,0.0,0.0,0.0,8.999999999999999e-08
1729690915.1550303,1857,1729690915,152885440,base_link,0.011618885550442454,0.04437869616212885,-0.6920310956033823,-0.7204085615423361,1.0,0.0,0.0,0.0,1.0,0.0,0.0,0.0,1.0,0.05469418689608574,-0.10256552696228029,-0.11586253345012663,1.2184696791468346e-07,0.0,0.0,0.0,1.2184696791468346e-07,0.0,0.0,0.0,1.2184696791468346e-07,-0.0588399,-0.6570455499999988,10.67944185,8.999999999999999e-08,0.0,0.0,0.0,8.999999999999999e-08,0.0,0.0,0.0,8.999999999999999e-08
1729690915.2551877,1858,1729690915,252882624,base_link,0.005840085105915731,0.04369850795477809,-0.6882898761804503,-0.7240948695826964,1.0,0.0,0.0,0.0,1.0,0.0,0.0,0.0,1.0,-0.018106279894709587,-0.05516577512025836,-0.20674951374530792,1.2184696791468346e-07,0.0,0.0,0.0,1.2184696791468346e-07,0.0,0.0,0.0,1.2184696791468346e-07,0.24516625,-0.7747253499999988,9.7085835,8.999999999999999e-08,0.0,0.0,0.0,8.999999999999999e-08,0.0,0.0,0.0,8.999999999999999e-08
1729690915.3563092,1859,1729690915,353883392,base_link,0.004374750183384035,0.042935641162443736,-0.6834902152879988,-0.7286827278619743,1.0,0.0,0.0,0.0,1.0,0.0,0.0,0.0,1.0,-0.008890638127923012,0.06340670585632323,-0.12289604544639589,1.2184696791468346e-07,0.0,0.0,0.0,1.2184696791468346e-07,0.0,0.0,0.0,1.2184696791468346e-07,-0.18632635,-0.5099457999999988,9.8654899,8.999999999999999e-08,0.0,0.0,0.0,8.999999999999999e-08,0.0,0.0,0.0,8.999999999999999e-08
1729690915.4550023,1860,1729690915,452879040,base_link,0.006812130604186407,0.04289611271972867,-0.6785786811282186,-0.7332424509727019,1.0,0.0,0.0,0.0,1.0,0.0,0.0,0.0,1.0,0.05887697637081146,0.025448884814977632,-0.11614169925451279,1.2184696791468346e-07,0.0,0.0,0.0,1.2184696791468346e-07,0.0,0.0,0.0,1.2184696791468346e-07,0.1765197,-0.5982056499999989,9.38496405,8.999999999999999e-08,0.0,0.0,0.0,8.999999999999999e-08,0.0,0.0,0.0,8.999999999999999e-08
1729690915.5586736,1861,1729690915,554876992,base_link,0.0074488110339285245,0.04073751839287957,-0.6769094959807461,-0.7349003361412096,1.0,0.0,0.0,0.0,1.0,0.0,0.0,0.0,1.0,0.19518253207206726,-0.11642801016569135,0.17237102985382083,1.2184696791468346e-07,0.0,0.0,0.0,1.2184696791468346e-07,0.0,0.0,0.0,1.2184696791468346e-07,0.36284605000000003,-0.8629851999999988,10.11065615,8.999999999999999e-08,0.0,0.0,0.0,8.999999999999999e-08,0.0,0.0,0.0,8.999999999999999e-08
1729690915.6565938,1862,1729690915,653876480,base_link,0.00899979926848028,0.04215722625326876,-0.6761995930803596,-0.7354562408503404,1.0,0.0,0.0,0.0,1.0,0.0,0.0,0.0,1.0,-0.27528613805770874,0.02727155387401579,-0.14079836010932922,1.2184696791468346e-07,0.0,0.0,0.0,1.2184696791468346e-07,0.0,0.0,0.0,1.2184696791468346e-07,0.0980665,-0.8237585999999989,8.58081875,8.999999999999999e-08,0.0,0.0,0.0,8.999999999999999e-08,0.0,0.0,0.0,8.999999999999999e-08
