Time,header.seq,header.stamp.secs,header.stamp.nsecs,header.frame_id,orientation.x,orientation.y,orientation.z,orientation.w,orientation_covariance_0,orientation_covariance_1,orientation_covariance_2,orientation_covariance_3,orientation_covariance_4,orientation_covariance_5,orientation_covariance_6,orientation_covariance_7,orientation_covariance_8,angular_velocity.x,angular_velocity.y,angular_velocity.z,angular_velocity_covariance_0,angular_velocity_covariance_1,angular_velocity_covariance_2,angular_velocity_covariance_3,angular_velocity_covariance_4,angular_velocity_covariance_5,angular_velocity_covariance_6,angular_velocity_covariance_7,angular_velocity_covariance_8,linear_acceleration.x,linear_acceleration.y,linear_acceleration.z,linear_acceleration_covariance_0,linear_acceleration_covariance_1,linear_acceleration_covariance_2,linear_acceleration_covariance_3,linear_acceleration_covariance_4,linear_acceleration_covariance_5,linear_acceleration_covariance_6,linear_acceleration_covariance_7,linear_acceleration_covariance_8
1737285429.1288173,12558,1737285429,25805056,base_link,0.005573004189655867,-0.00206472121328493,-0.6594315530033605,-0.7517411159795568,1.0,0.0,0.0,0.0,1.0,0.0,0.0,0.0,1.0,0.267281174659729,-0.4151011109352112,0.016205899417400412,1.2184696791468346e-07,0.0,0.0,0.0,1.2184696791468346e-07,0.0,0.0,0.0,1.2184696791468346e-07,-0.04903325,-0.1667130499999989,9.012311350000001,8.999999999999999e-08,0.0,0.0,0.0,8.999999999999999e-08,0.0,0.0,0.0,8.999999999999999e-08
1737285429.129021,12559,1737285429,126797888,base_link,0.009020750455638667,-0.0018650976457412836,-0.6620455802307097,-0.7494069636512405,1.0,0.0,0.0,0.0,1.0,0.0,0.0,0.0,1.0,-0.05721405893564224,0.1821805387735367,0.24137163162231443,1.2184696791468346e-07,0.0,0.0,0.0,1.2184696791468346e-07,0.0,0.0,0.0,1.2184696791468346e-07,-0.14709975,0.08825985000000108,8.83579165,8.999999999999999e-08,0.0,0.0,0.0,8.999999999999999e-08,0.0,0.0,0.0,8.999999999999999e-08
1737285429.2273068,12560,1737285429,224794816,base_link,0.010476749191942188,0.0006377357024171393,-0.6610884356751082,-0.7502345708084779,1.0,0.0,0.0,0.0,1.0,0.0,0.0,0.0,1.0,0.030427470803260803,-0.3131485879421234,-0.04682630673050876,1.2184696791468346e-07,0.0,0.0,0.0,1.2184696791468346e-07,0.0,0.0,0.0,1.2184696791468346e-07,-0.1765197,-0.4216859499999987,10.83634825,8.999999999999999e-08,0.0,0.0,0.0,8.999999999999999e-08,0.0,0.0,0.0,8.999999999999999e-08
1737285429.326585,12561,1737285429,324791232,base_link,0.012436317359308344,0.0024397091348670285,-0.657227317144061,-0.7535858540534687,1.0,0.0,0.0,0.0,1.0,0.0,0.0,0.0,1.0,0.0636293813586235,-0.05477158725261691,-0.2473262995481491,1.2184696791468346e-07,0.0,0.0,0.0,1.2184696791468346e-07,0.0,0.0,0.0,1.2184696791468346e-07,-0.10787315,-0.156906399999999,8.22777935,8.999999999999999e-08,0.0,0.0,0.0,8.999999999999999e-08,0.0,0.0,0.0,8.999999999999999e-08
1737285429.434626,12562,1737285429,431787392,base_link,0.011260437370230294,0.0008867295429211802,-0.576518103267769,-0.8170062991589986,1.0,0.0,0.0,0.0,1.0,0.0,0.0,0.0,1.0,-0.344389945268631,0.2770053446292877,0.12888137996196744,1.2184696791468346e-07,0.0,0.0,0.0,1.2184696791468346e-07,0.0,0.0,0.0,1.2184696791468346e-07,0.06864655,-0.6962721499999988,10.2185293,8.999999999999999e-08,0.0,0.0,0.0,8.999999999999999e-08,0.0,0.0,0.0,8.999999999999999e-08
1737285429.5327654,12563,1737285429,530784832,base_link,0.010865350631300393,-0.0011482668639629303,-0.604322165415991,-0.7966651404610319,1.0,0.0,0.0,0.0,1.0,0.0,0.0,0.0,1.0,-0.22164225578308105,0.29271888732910156,-0.05729143321514133,1.2184696791468346e-07,0.0,0.0,0.0,1.2184696791468346e-07,0.0,0.0,0.0,1.2184696791468346e-07,0.0392266,-0.8335652499999987,10.718668450000001,8.999999999999999e-08,0.0,0.0,0.0,8.999999999999999e-08,0.0,0.0,0.0,8.999999999999999e-08
1737285429.631216,12564,1737285429,628780992,base_link,0.011433427240618462,-0.0024725171125745443,-0.6444493511005462,-0.7645575173044515,1.0,0.0,0.0,0.0,1.0,0.0,0.0,0.0,1.0,0.029095754027366638,-0.14816090464591983,-0.18000769615173337,1.2184696791468346e-07,0.0,0.0,0.0,1.2184696791468346e-07,0.0,0.0,0.0,1.2184696791468346e-07,0.00980665,0.1372931000000013,10.6107953,8.999999999999999e-08,0.0,0.0,0.0,8.999999999999999e-08,0.0,0.0,0.0,8.999999999999999e-08
1737285429.7295554,12565,1737285429,725775872,base_link,0.010568994583219504,-0.00047809721443593366,-0.6655885265240147,-0.7462439153092938,1.0,0.0,0.0,0.0,1.0,0.0,0.0,0.0,1.0,0.029302947223186493,-0.2846961915493012,-0.36254078149795527,1.2184696791468346e-07,0.0,0.0,0.0,1.2184696791468346e-07,0.0,0.0,0.0,1.2184696791468346e-07,-0.0980665,-0.33342609999999867,11.0815145,8.999999999999999e-08,0.0,0.0,0.0,8.999999999999999e-08,0.0,0.0,0.0,8.999999999999999e-08
1737285429.8277261,12566,1737285429,825769216,base_link,0.012403294018119106,0.0014324325724492128,-0.6605023103060723,-0.7507201905602156,1.0,0.0,0.0,0.0,1.0,0.0,0.0,0.0,1.0,-0.15588508546352386,0.057432260364294004,-0.42435434460639954,1.2184696791468346e-07,0.0,0.0,0.0,1.2184696791468346e-07,0.0,0.0,0.0,1.2184696791468346e-07,-0.22555295,-0.7256920999999987,10.40485565,8.999999999999999e-08,0.0,0.0,0.0,8.999999999999999e-08,0.0,0.0,0.0,8.999999999999999e-08
1737285429.9270878,12567,1737285429,924764352,base_link,0.012085964031604427,0.005091103655740344,-0.6330490926889033,-0.7740005532186327,1.0,0.0,0.0,0.0,1.0,0.0,0.0,0.0,1.0,-0.033678002655506134,-0.0638051927089692,-0.6718077063560486,1.2184696791468346e-07,0.0,0.0,0.0,1.2184696791468346e-07,0.0,0.0,0.0,1.2184696791468346e-07,0.0784532,-1.6867437999999986,10.2577559,8.999999999999999e-08,0.0,0.0,0.0,8.999999999999999e-08,0.0,0.0,0.0,8.999999999999999e-08
1737285430.0284941,12568,1737285430,25755648,base_link,0.012220190805517882,0.00592450421857808,-0.59964046732356,-0.800154283331923,1.0,0.0,0.0,0.0,1.0,0.0,0.0,0.0,1.0,0.27869197726249695,0.0007506320253013556,-0.8235774040222168,1.2184696791468346e-07,0.0,0.0,0.0,1.2184696791468346e-07,0.0,0.0,0.0,1.2184696791468346e-07,-0.0196133,-0.5687856999999988,9.65955025,8.999999999999999e-08,0.0,0.0,0.0,8.999999999999999e-08,0.0,0.0,0.0,8.999999999999999e-08
1737285430.1276615,12569,1737285430,125748736,base_link,0.010995464700803764,0.004642624894838305,-0.5743179257975306,-0.8185453352733257,1.0,0.0,0.0,0.0,1.0,0.0,0.0,0.0,1.0,0.16262798011302948,-0.17790463566780096,-0.46414685249328613,1.2184696791468346e-07,0.0,0.0,0.0,1.2184696791468346e-07,0.0,0.0,0.0,1.2184696791468346e-07,-0.392266,0.3824593500000012,9.9439431,8.999999999999999e-08,0.0,0.0,0.0,8.999999999999999e-08,0.0,0.0,0.0,8.999999999999999e-08
1737285430.2266622,12570,1737285430,224745920,base_link,0.010265937254245395,0.0021966174669277474,-0.5623199215934647,-0.8268531255205578,1.0,0.0,0.0,0.0,1.0,0.0,0.0,0.0,1.0,-0.010022284463047981,0.01471467595547436,-0.1390482783317566,1.2184696791468346e-07,0.0,0.0,0.0,1.2184696791468346e-07,0.0,0.0,0.0,1.2184696791468346e-07,-0.1569064,-0.4805258499999988,9.7281968,8.999999999999999e-08,0.0,0.0,0.0,8.999999999999999e-08,0.0,0.0,0.0,8.999999999999999e-08
1737285430.3267772,12571,1737285430,324740288,base_link,0.011433121422435098,-0.0002490826720843246,-0.5609243058853826,-0.8277881037798042,1.0,0.0,0.0,0.0,1.0,0.0,0.0,0.0,1.0,-0.27852773666381836,0.2005244642496109,0.07437153905630109,1.2184696791468346e-07,0.0,0.0,0.0,1.2184696791468346e-07,0.0,0.0,0.0,1.2184696791468346e-07,0.10787315,-0.24516624999999875,10.3754357,8.999999999999999e-08,0.0,0.0,0.0,8.999999999999999e-08,0.0,0.0,0.0,8.999999999999999e-08
1737285430.4261198,12572,1737285430,424734656,base_link,0.009699807945165293,-0.0014765826250621164,-0.566884117114216,-0.8237391159786053,1.0,0.0,0.0,0.0,1.0,0.0,0.0,0.0,1.0,-0.15746022760868073,0.09925947338342667,0.0031763608567416547,1.2184696791468346e-07,0.0,0.0,0.0,1.2184696791468346e-07,0.0,0.0,0.0,1.2184696791468346e-07,-0.392266,0.7845320000000012,10.179302700000001,8.999999999999999e-08,0.0,0.0,0.0,8.999999999999999e-08,0.0,0.0,0.0,8.999999999999999e-08
1737285430.5277576,12573,1737285430,525730304,base_link,0.006543976925955801,-0.0029026059449466716,-0.5758724315844148,-0.8175082224575937,1.0,0.0,0.0,0.0,1.0,0.0,0.0,0.0,1.0,0.1580066829919815,-0.12289245426654813,0.18210969865322116,1.2184696791468346e-07,0.0,0.0,0.0,1.2184696791468346e-07,0.0,0.0,0.0,1.2184696791468346e-07,-0.3138128,0.06864655000000122,10.05181625,8.999999999999999e-08,0.0,0.0,0.0,8.999999999999999e-08,0.0,0.0,0.0,8.999999999999999e-08
1737285430.627953,12574,1737285430,624726208,base_link,0.005354417250195039,-0.003089512202720816,-0.582396277166163,-0.8128815174877911,1.0,0.0,0.0,0.0,1.0,0.0,0.0,0.0,1.0,0.15618692338466644,-0.3223138451576233,0.07150612026453022,1.2184696791468346e-07,0.0,0.0,0.0,1.2184696791468346e-07,0.0,0.0,0.0,1.2184696791468346e-07,-0.2353596,-0.34323274999999875,10.16949605,8.999999999999999e-08,0.0,0.0,0.0,8.999999999999999e-08,0.0,0.0,0.0,8.999999999999999e-08
1737285430.7278185,12575,1737285430,725722112,base_link,0.0058528368372467434,-0.0017133870339485447,-0.5860909306782723,-0.8102223334261436,1.0,0.0,0.0,0.0,1.0,0.0,0.0,0.0,1.0,-0.18018455803394318,-0.1154050827026367,0.09356363862752916,1.2184696791468346e-07,0.0,0.0,0.0,1.2184696791468346e-07,0.0,0.0,0.0,1.2184696791468346e-07,-0.20593965,-0.00980664999999888,9.14960445,8.999999999999999e-08,0.0,0.0,0.0,8.999999999999999e-08,0.0,0.0,0.0,8.999999999999999e-08
1737285430.828773,12576,1737285430,826717504,base_link,0.008572839357843991,-0.0031319030298591474,-0.5858393320102624,-0.8103758231083439,1.0,0.0,0.0,0.0,1.0,0.0,0.0,0.0,1.0,-0.288028359413147,0.28791624307632446,0.04355176910758015,1.2184696791468346e-07,0.0,0.0,0.0,1.2184696791468346e-07,0.0,0.0,0.0,1.2184696791468346e-07,0.1569064,-0.7060787999999989,9.2378643,8.999999999999999e-08,0.0,0.0,0.0,8.999999999999999e-08,0.0,0.0,0.0,8.999999999999999e-08
1737285430.9270883,12577,1737285430,925710592,base_link,0.0056306163439187535,-0.0026987786012639507,-0.5813563160285236,-0.8136251265585352,1.0,0.0,0.0,0.0,1.0,0.0,0.0,0.0,1.0,0.13527660071849823,-0.28961339592933655,-0.13919918239116666,1.2184696791468346e-07,0.0,0.0,0.0,1.2184696791468346e-07,0.0,0.0,0.0,1.2184696791468346e-07,-0.0784532,-0.7060787999999988,10.6696352,8.999999999999999e-08,0.0,0.0,0.0,8.999999999999999e-08,0.0,0.0,0.0,8.999999999999999e-08
1737285431.0259855,12578,1737285431,24706496,base_link,0.01081528724167154,-0.0046766785876530366,-0.5772196299788925,-0.8165039234481967,1.0,0.0,0.0,0.0,1.0,0.0,0.0,0.0,1.0,-0.2624996304512024,0.4432123303413391,-0.042896959930658396,1.2184696791468346e-07,0.0,0.0,0.0,1.2184696791468346e-07,0.0,0.0,0.0,1.2184696791468346e-07,0.00980665,0.24516625000000106,8.46313895,8.999999999999999e-08,0.0,0.0,0.0,8.999999999999999e-08,0.0,0.0,0.0,8.999999999999999e-08
1737285431.1277587,12579,1737285431,125693952,base_link,0.012559848253524285,-0.005226703690540575,-0.5761458671523195,-0.8172336700991227,1.0,0.0,0.0,0.0,1.0,0.0,0.0,0.0,1.0,-0.38099801540374756,0.18503925204277039,-0.030220581218600297,1.2184696791468346e-07,0.0,0.0,0.0,1.2184696791468346e-07,0.0,0.0,0.0,1.2184696791468346e-07,-0.2353596,-0.5197524499999986,11.4933938,8.999999999999999e-08,0.0,0.0,0.0,8.999999999999999e-08,0.0,0.0,0.0,8.999999999999999e-08
1737285431.2258637,12580,1737285431,224688832,base_link,0.010858150307662308,-0.004785251972866671,-0.5768201911361169,-0.816784958868089,1.0,0.0,0.0,0.0,1.0,0.0,0.0,0.0,1.0,0.10040797293186188,0.04184629395604134,0.045389879494905465,1.2184696791468346e-07,0.0,0.0,0.0,1.2184696791468346e-07,0.0,0.0,0.0,1.2184696791468346e-07,-0.26477955,-0.36284604999999875,10.4931155,8.999999999999999e-08,0.0,0.0,0.0,8.999999999999999e-08,0.0,0.0,0.0,8.999999999999999e-08
1737285431.3281083,12581,1737285431,326681152,base_link,0.00772680628569767,-0.0026563269727258735,-0.578044296757323,-0.815964479237895,1.0,0.0,0.0,0.0,1.0,0.0,0.0,0.0,1.0,0.22088803350925446,-0.2551948130130768,-0.03428515419363972,1.2184696791468346e-07,0.0,0.0,0.0,1.2184696791468346e-07,0.0,0.0,0.0,1.2184696791468346e-07,-0.18632635,-0.34323274999999887,9.3163175,8.999999999999999e-08,0.0,0.0,0.0,8.999999999999999e-08,0.0,0.0,0.0,8.999999999999999e-08
1737285431.4268003,12582,1737285431,424673984,base_link,0.005620774166177216,-0.0011475795807019894,-0.5781516694812541,-0.8159091475372228,1.0,0.0,0.0,0.0,1.0,0.0,0.0,0.0,1.0,0.2069820612668991,-0.24322690069675446,-0.06022319570183751,1.2184696791468346e-07,0.0,0.0,0.0,1.2184696791468346e-07,0.0,0.0,0.0,1.2184696791468346e-07,0.00980665,0.12748645000000103,8.42391235,8.999999999999999e-08,0.0,0.0,0.0,8.999999999999999e-08,0.0,0.0,0.0,8.999999999999999e-08
1737285431.5279498,12583,1737285431,526670144,base_link,0.006123026573478326,-0.0023392760896889095,-0.5788538213796071,-0.8154049851498227,1.0,0.0,0.0,0.0,1.0,0.0,0.0,0.0,1.0,0.27366626262664795,-0.07882478088140486,0.1261233389377594,1.2184696791468346e-07,0.0,0.0,0.0,1.2184696791468346e-07,0.0,0.0,0.0,1.2184696791468346e-07,-0.2941995,0.07845320000000108,8.8652116,8.999999999999999e-08,0.0,0.0,0.0,8.999999999999999e-08,0.0,0.0,0.0,8.999999999999999e-08
1737285431.6258914,12584,1737285431,624666560,base_link,0.008583006806624983,-0.002086039246941683,-0.5802893563568291,-0.8143624766241349,1.0,0.0,0.0,0.0,1.0,0.0,0.0,0.0,1.0,-0.3894359767436981,0.17745733261108398,-0.010266241617500805,1.2184696791468346e-07,0.0,0.0,0.0,1.2184696791468346e-07,0.0,0.0,0.0,1.2184696791468346e-07,-0.2157463,-0.13729309999999886,9.3751574,8.999999999999999e-08,0.0,0.0,0.0,8.999999999999999e-08,0.0,0.0,0.0,8.999999999999999e-08
1737285431.7278922,12585,1737285431,726659904,base_link,0.006983410000392602,-0.0027832531253773355,-0.5814186900017695,-0.8135697833642992,1.0,0.0,0.0,0.0,1.0,0.0,0.0,0.0,1.0,-0.23647300899028778,0.3133385479450226,-0.015456790104508438,1.2184696791468346e-07,0.0,0.0,0.0,1.2184696791468346e-07,0.0,0.0,0.0,1.2184696791468346e-07,-0.20593965,-0.11767979999999871,10.4931155,8.999999999999999e-08,0.0,0.0,0.0,8.999999999999999e-08,0.0,0.0,0.0,8.999999999999999e-08
1737285431.8272104,12586,1737285431,825655040,base_link,0.005364001420181073,-0.0006101023268703045,-0.5825444012681896,-0.8127809519267795,1.0,0.0,0.0,0.0,1.0,0.0,0.0,0.0,1.0,0.13867852091789246,-0.45663660764694214,-0.11459760367870325,1.2184696791468346e-07,0.0,0.0,0.0,1.2184696791468346e-07,0.0,0.0,0.0,1.2184696791468346e-07,-0.02941995,1.2898399040289912e-15,10.5323421,8.999999999999999e-08,0.0,0.0,0.0,8.999999999999999e-08,0.0,0.0,0.0,8.999999999999999e-08
1737285431.9281855,12587,1737285431,926643776,base_link,0.004874888073223058,0.0010298824844666265,-0.5822691925102416,-0.8129807883719105,1.0,0.0,0.0,0.0,1.0,0.0,0.0,0.0,1.0,0.11616192758083344,-0.43190640211105347,-0.16829906404018397,1.2184696791468346e-07,0.0,0.0,0.0,1.2184696791468346e-07,0.0,0.0,0.0,1.2184696791468346e-07,-0.1176798,-0.09806649999999892,8.7867584,8.999999999999999e-08,0.0,0.0,0.0,8.999999999999999e-08,0.0,0.0,0.0,8.999999999999999e-08
1737285432.0269387,12588,1737285432,25638912,base_link,0.008015319533977371,0.000695106744264001,-0.5794030661922045,-0.8150014468493011,1.0,0.0,0.0,0.0,1.0,0.0,0.0,0.0,1.0,-0.02602975070476532,0.27276214957237244,-0.17216368019580844,1.2184696791468346e-07,0.0,0.0,0.0,1.2184696791468346e-07,0.0,0.0,0.0,1.2184696791468346e-07,-0.44129925000000003,0.28439285000000103,8.50236555,8.999999999999999e-08,0.0,0.0,0.0,8.999999999999999e-08,0.0,0.0,0.0,8.999999999999999e-08
1737285432.1279895,12589,1737285432,126636352,base_link,0.010893413231715667,-0.0004817672074430164,-0.5748142433992767,-0.818211272859179,1.0,0.0,0.0,0.0,1.0,0.0,0.0,0.0,1.0,-0.03256518021225929,0.11649283766746521,-0.04285170137882234,1.2184696791468346e-07,0.0,0.0,0.0,1.2184696791468346e-07,0.0,0.0,0.0,1.2184696791468346e-07,-0.28439285000000003,-0.05883989999999872,10.48330885,8.999999999999999e-08,0.0,0.0,0.0,8.999999999999999e-08,0.0,0.0,0.0,8.999999999999999e-08
1737285432.226953,12590,1737285432,224632512,base_link,0.009433780618333987,-0.0005123493346208685,-0.5718508466684454,-0.8203032064096705,1.0,0.0,0.0,0.0,1.0,0.0,0.0,0.0,1.0,0.41311728954315186,-0.41342073678970337,-0.14403696358203882,1.2184696791468346e-07,0.0,0.0,0.0,1.2184696791468346e-07,0.0,0.0,0.0,1.2184696791468346e-07,-0.1372931,-0.4609125499999987,10.93441475,8.999999999999999e-08,0.0,0.0,0.0,8.999999999999999e-08,0.0,0.0,0.0,8.999999999999999e-08
1737285432.328012,12591,1737285432,326625856,base_link,0.008344494587338361,-0.003727508051799006,-0.5736188767100663,-0.8190713396131545,1.0,0.0,0.0,0.0,1.0,0.0,0.0,0.0,1.0,0.09418153017759323,-0.026455992832779864,0.16856417059898376,1.2184696791468346e-07,0.0,0.0,0.0,1.2184696791468346e-07,0.0,0.0,0.0,1.2184696791468346e-07,-0.2157463,-0.4805258499999987,10.8461549,8.999999999999999e-08,0.0,0.0,0.0,8.999999999999999e-08,0.0,0.0,0.0,8.999999999999999e-08
1737285432.4269447,12592,1737285432,425620736,base_link,0.00860084758690907,-0.0026298237772209767,-0.5736523691521993,-0.8190494910649515,1.0,0.0,0.0,0.0,1.0,0.0,0.0,0.0,1.0,-0.08677057921886444,-0.0038229553028941102,0.04179031029343605,1.2184696791468346e-07,0.0,0.0,0.0,1.2184696791468346e-07,0.0,0.0,0.0,1.2184696791468346e-07,-0.20593965,-0.30400614999999875,10.1596894,8.999999999999999e-08,0.0,0.0,0.0,8.999999999999999e-08,0.0,0.0,0.0,8.999999999999999e-08
1737285432.5259857,12593,1737285432,524620736,base_link,0.010974517018660068,-0.0033741830713767827,-0.5728607507418748,-0.8195722879186822,1.0,0.0,0.0,0.0,1.0,0.0,0.0,0.0,1.0,-0.2034214735031128,0.09869980812072753,-0.05923690646886827,1.2184696791468346e-07,0.0,0.0,0.0,1.2184696791468346e-07,0.0,0.0,0.0,1.2184696791468346e-07,-0.0980665,-0.3530393999999989,9.38496405,8.999999999999999e-08,0.0,0.0,0.0,8.999999999999999e-08,0.0,0.0,0.0,8.999999999999999e-08
1737285432.6269388,12594,1737285432,625617408,base_link,0.008716321313841207,-0.0024884518385527733,-0.5727202839298385,-0.8197007440069373,1.0,0.0,0.0,0.0,1.0,0.0,0.0,0.0,1.0,-0.20999151468276978,0.12108108401298522,-0.07516493648290636,1.2184696791468346e-07,0.0,0.0,0.0,1.2184696791468346e-07,0.0,0.0,0.0,1.2184696791468346e-07,-0.1176798,-0.4216859499999987,10.67944185,8.999999999999999e-08,0.0,0.0,0.0,8.999999999999999e-08,0.0,0.0,0.0,8.999999999999999e-08
1737285432.7260594,12595,1737285432,724612800,base_link,0.0077735618930331015,-0.002788829974852787,-0.5752620273488596,-0.8179274992646636,1.0,0.0,0.0,0.0,1.0,0.0,0.0,0.0,1.0,-0.12767481803894043,0.14183270931243896,0.06698139011859892,1.2184696791468346e-07,0.0,0.0,0.0,1.2184696791468346e-07,0.0,0.0,0.0,1.2184696791468346e-07,-0.1372931,-0.44129924999999887,9.3359308,8.999999999999999e-08,0.0,0.0,0.0,8.999999999999999e-08,0.0,0.0,0.0,8.999999999999999e-08
1737285432.8269846,12596,1737285432,825609728,base_link,0.008519061262638418,-4.244654131207395e-06,-0.5765294321325887,-0.8170319696695233,1.0,0.0,0.0,0.0,1.0,0.0,0.0,0.0,1.0,-0.032748736441135406,-0.07086391001939775,-0.12301082164049147,1.2184696791468346e-07,0.0,0.0,0.0,1.2184696791468346e-07,0.0,0.0,0.0,1.2184696791468346e-07,-0.1765197,-0.12748644999999872,10.5323421,8.999999999999999e-08,0.0,0.0,0.0,8.999999999999999e-08,0.0,0.0,0.0,8.999999999999999e-08
1737285432.9271688,12597,1737285432,924605632,base_link,0.008213975110663489,-0.00015181396176043078,-0.5781936470191398,-0.8158582071120621,1.0,0.0,0.0,0.0,1.0,0.0,0.0,0.0,1.0,0.28185614943504333,-0.13496100902557373,0.08088961243629457,1.2184696791468346e-07,0.0,0.0,0.0,1.2184696791468346e-07,0.0,0.0,0.0,1.2184696791468346e-07,-0.12748645,0.5295591000000013,10.0223963,8.999999999999999e-08,0.0,0.0,0.0,8.999999999999999e-08,0.0,0.0,0.0,8.999999999999999e-08
1737285433.02805,12598,1737285433,26601536,base_link,0.007149221752050652,8.665170322320796e-05,-0.5792101256494372,-0.8151469263053044,1.0,0.0,0.0,0.0,1.0,0.0,0.0,0.0,1.0,0.37567058205604553,-0.5061706900596619,-0.0790428146719932,1.2184696791468346e-07,0.0,0.0,0.0,1.2184696791468346e-07,0.0,0.0,0.0,1.2184696791468346e-07,-0.22555295,-0.11767979999999868,10.77750835,8.999999999999999e-08,0.0,0.0,0.0,8.999999999999999e-08,0.0,0.0,0.0,8.999999999999999e-08
1737285433.1270664,12599,1737285433,125594880,base_link,0.00855068758981417,-0.001447493828227264,-0.5814947418643674,-0.8135039371063001,1.0,0.0,0.0,0.0,1.0,0.0,0.0,0.0,1.0,0.14324864745140076,0.07191342115402224,0.17352983355522156,1.2184696791468346e-07,0.0,0.0,0.0,1.2184696791468346e-07,0.0,0.0,0.0,1.2184696791468346e-07,-0.20593965,0.39226600000000106,8.52197885,8.999999999999999e-08,0.0,0.0,0.0,8.999999999999999e-08,0.0,0.0,0.0,8.999999999999999e-08
1737285433.2262676,12600,1737285433,224589504,base_link,0.013442394646716975,-0.0014650520488074029,-0.5828330143593455,-0.8124794354452642,1.0,0.0,0.0,0.0,1.0,0.0,0.0,0.0,1.0,-0.14162518084049225,0.06303440034389496,-0.040925387293100364,1.2184696791468346e-07,0.0,0.0,0.0,1.2184696791468346e-07,0.0,0.0,0.0,1.2184696791468346e-07,-0.196133,-0.3824593499999988,9.6889702,8.999999999999999e-08,0.0,0.0,0.0,8.999999999999999e-08,0.0,0.0,0.0,8.999999999999999e-08
1737285433.32708,12601,1737285433,325588736,base_link,0.013719643937826218,-0.00012433707097600507,-0.5796575710505643,-0.8147446570762352,1.0,0.0,0.0,0.0,1.0,0.0,0.0,0.0,1.0,0.06280870735645294,0.012259511277079551,-0.25691255927085876,1.2184696791468346e-07,0.0,0.0,0.0,1.2184696791468346e-07,0.0,0.0,0.0,1.2184696791468346e-07,-0.0980665,-0.2451662499999988,9.67916355,8.999999999999999e-08,0.0,0.0,0.0,8.999999999999999e-08,0.0,0.0,0.0,8.999999999999999e-08
1737285433.4261084,12602,1737285433,424582080,base_link,0.010110754699566052,0.0018614162673966717,-0.5768229229792264,-0.8168045196340346,1.0,0.0,0.0,0.0,1.0,0.0,0.0,0.0,1.0,0.12979595363140106,-0.13811083137989041,0.1202540546655655,1.2184696791468346e-07,0.0,0.0,0.0,1.2184696791468346e-07,0.0,0.0,0.0,1.2184696791468346e-07,-0.26477955,0.2353596000000012,9.5909037,8.999999999999999e-08,0.0,0.0,0.0,8.999999999999999e-08,0.0,0.0,0.0,8.999999999999999e-08
1737285433.5271,12603,1737285433,525578240,base_link,0.007042288688999819,0.0038915447929727055,-0.5732710085751656,-0.8193263164187744,1.0,0.0,0.0,0.0,1.0,0.0,0.0,0.0,1.0,0.2763698399066925,-0.44585976004600525,-0.1682161390781402,1.2184696791468346e-07,0.0,0.0,0.0,1.2184696791468346e-07,0.0,0.0,0.0,1.2184696791468346e-07,-0.02941995,-0.6864654999999987,9.7870367,8.999999999999999e-08,0.0,0.0,0.0,8.999999999999999e-08,0.0,0.0,0.0,8.999999999999999e-08
1737285433.6262612,12604,1737285433,624570048,base_link,0.00958848034260846,0.003702390155562953,-0.5737361116187071,-0.8189757185512292,1.0,0.0,0.0,0.0,1.0,0.0,0.0,0.0,1.0,-0.07839352637529373,-0.1559818983078003,-0.02197771705687044,1.2184696791468346e-07,0.0,0.0,0.0,1.2184696791468346e-07,0.0,0.0,0.0,1.2184696791468346e-07,0.1176798,0.37265270000000106,8.6102387,8.999999999999999e-08,0.0,0.0,0.0,8.999999999999999e-08,0.0,0.0,0.0,8.999999999999999e-08
1737285433.7272434,12605,1737285433,725567232,base_link,0.009979530727423457,0.004142941679343521,-0.5728612466484105,-0.8195811351471742,1.0,0.0,0.0,0.0,1.0,0.0,0.0,0.0,1.0,-0.004773733206093311,0.07907359302043916,0.08124396950006484,1.2184696791468346e-07,0.0,0.0,0.0,1.2184696791468346e-07,0.0,0.0,0.0,1.2184696791468346e-07,-0.16671305,-0.17651969999999892,8.85540495,8.999999999999999e-08,0.0,0.0,0.0,8.999999999999999e-08,0.0,0.0,0.0,8.999999999999999e-08
1737285433.82627,12606,1737285433,824563904,base_link,0.01238427680357186,0.004431263002859318,-0.5705660870797002,-0.8211463535027186,1.0,0.0,0.0,0.0,1.0,0.0,0.0,0.0,1.0,-0.1372448056936264,0.06227146089076993,-0.2318025380373001,1.2184696791468346e-07,0.0,0.0,0.0,1.2184696791468346e-07,0.0,0.0,0.0,1.2184696791468346e-07,0.02941995,-0.41187929999999884,9.52225715,8.999999999999999e-08,0.0,0.0,0.0,8.999999999999999e-08,0.0,0.0,0.0,8.999999999999999e-08
1737285433.9274652,12607,1737285433,926560576,base_link,0.012097922034311532,0.0031572433699406472,-0.568198639002767,-0.8227964382106658,1.0,0.0,0.0,0.0,1.0,0.0,0.0,0.0,1.0,-0.09518938511610031,0.35642126202583313,0.005108299665152983,1.2184696791468346e-07,0.0,0.0,0.0,1.2184696791468346e-07,0.0,0.0,0.0,1.2184696791468346e-07,-0.06864655,0.11767980000000122,9.9831697,8.999999999999999e-08,0.0,0.0,0.0,8.999999999999999e-08,0.0,0.0,0.0,8.999999999999999e-08
1737285434.026427,12608,1737285434,24557248,base_link,0.010936181258221008,0.0028414979401780944,-0.5666094697798949,-0.823908996543119,1.0,0.0,0.0,0.0,1.0,0.0,0.0,0.0,1.0,0.06142634153366089,0.07200713455677031,-0.12793928384780884,1.2184696791468346e-07,0.0,0.0,0.0,1.2184696791468346e-07,0.0,0.0,0.0,1.2184696791468346e-07,-0.1765197,-0.3236194499999986,11.24822755,8.999999999999999e-08,0.0,0.0,0.0,8.999999999999999e-08,0.0,0.0,0.0,8.999999999999999e-08
1737285434.1309905,12609,1737285434,126556224,base_link,0.010234300435363735,0.0021154040816293174,-0.5658129140357009,-0.8244674223221914,1.0,0.0,0.0,0.0,1.0,0.0,0.0,0.0,1.0,-0.1432606279850006,0.40649399161338806,0.18483985960483545,1.2184696791468346e-07,0.0,0.0,0.0,1.2184696791468346e-07,0.0,0.0,0.0,1.2184696791468346e-07,0.0,0.11767980000000125,10.20872265,8.999999999999999e-08,0.0,0.0,0.0,8.999999999999999e-08,0.0,0.0,0.0,8.999999999999999e-08
1737285434.2272537,12610,1737285434,225552128,base_link,0.010192762752283037,0.0023651313736980937,-0.5640949420969147,-0.8256436338044031,1.0,0.0,0.0,0.0,1.0,0.0,0.0,0.0,1.0,0.06823243200778961,-0.024239193648099913,-0.1178678497672081,1.2184696791468346e-07,0.0,0.0,0.0,1.2184696791468346e-07,0.0,0.0,0.0,1.2184696791468346e-07,-0.00980665,-0.47071919999999867,11.0619012,8.999999999999999e-08,0.0,0.0,0.0,8.999999999999999e-08,0.0,0.0,0.0,8.999999999999999e-08
1737285434.3262286,12611,1737285434,325547520,base_link,0.009747251793262275,0.0033262623392570217,-0.5652881752134741,-0.8248291980920353,1.0,0.0,0.0,0.0,1.0,0.0,0.0,0.0,1.0,0.06732936203479767,-0.2728535830974579,-0.13894489407539365,1.2184696791468346e-07,0.0,0.0,0.0,1.2184696791468346e-07,0.0,0.0,0.0,1.2184696791468346e-07,-0.5295591,-0.009806649999998713,10.5127288,8.999999999999999e-08,0.0,0.0,0.0,8.999999999999999e-08,0.0,0.0,0.0,8.999999999999999e-08
1737285434.4283695,12612,1737285434,426544192,base_link,0.009669960844040417,0.0024040821175773906,-0.5690599084357334,-0.8222356917925429,1.0,0.0,0.0,0.0,1.0,0.0,0.0,0.0,1.0,-0.19643692672252655,0.35658302903175354,0.19586978852748865,1.2184696791468346e-07,0.0,0.0,0.0,1.2184696791468346e-07,0.0,0.0,0.0,1.2184696791468346e-07,-0.4511059,0.6962721500000011,8.69849855,8.999999999999999e-08,0.0,0.0,0.0,8.999999999999999e-08,0.0,0.0,0.0,8.999999999999999e-08
1737285434.5262303,12613,1737285434,524536768,base_link,0.009682816427658414,0.002699191200996812,-0.5720286612470499,-0.8201720357003136,1.0,0.0,0.0,0.0,1.0,0.0,0.0,0.0,1.0,0.03682008385658264,0.11123335361480712,-0.06509703397750856,1.2184696791468346e-07,0.0,0.0,0.0,1.2184696791468346e-07,0.0,0.0,0.0,1.2184696791468346e-07,0.1176798,-0.5883989999999987,10.9246081,8.999999999999999e-08,0.0,0.0,0.0,8.999999999999999e-08,0.0,0.0,0.0,8.999999999999999e-08
1737285434.6253853,12614,1737285434,624532416,base_link,0.008246586795749994,0.0024423352981141062,-0.5739122379590722,-0.8188716455741528,1.0,0.0,0.0,0.0,1.0,0.0,0.0,0.0,1.0,0.1638185679912567,-0.16620962321758267,0.1569100469350815,1.2184696791468346e-07,0.0,0.0,0.0,1.2184696791468346e-07,0.0,0.0,0.0,1.2184696791468346e-07,-0.20593965,-0.4020726499999988,9.58109705,8.999999999999999e-08,0.0,0.0,0.0,8.999999999999999e-08,0.0,0.0,0.0,8.999999999999999e-08
1737285434.7273142,12615,1737285434,725529088,base_link,0.0065268119727578166,0.002737891627831618,-0.5733908234383545,-0.819251407244194,1.0,0.0,0.0,0.0,1.0,0.0,0.0,0.0,1.0,0.309020459651947,-0.37405142188072205,-0.06643827259540554,1.2184696791468346e-07,0.0,0.0,0.0,1.2184696791468346e-07,0.0,0.0,0.0,1.2184696791468346e-07,0.00980665,-0.46091254999999887,9.3163175,8.999999999999999e-08,0.0,0.0,0.0,8.999999999999999e-08,0.0,0.0,0.0,8.999999999999999e-08
1737285434.8254242,12616,1737285434,824521920,base_link,0.007235043393392098,-0.0010073321429535553,-0.5753084033492262,-0.8179039555258388,1.0,0.0,0.0,0.0,1.0,0.0,0.0,0.0,1.0,-0.008208801038563251,0.09358885139226916,0.1940413862466812,1.2184696791468346e-07,0.0,0.0,0.0,1.2184696791468346e-07,0.0,0.0,0.0,1.2184696791468346e-07,0.00980665,-0.07845319999999895,8.58081875,8.999999999999999e-08,0.0,0.0,0.0,8.999999999999999e-08,0.0,0.0,0.0,8.999999999999999e-08
1737285434.9264643,12617,1737285434,925518080,base_link,0.011696663255412687,-0.0019152374216863286,-0.5766480070129776,-0.8169067241382392,1.0,0.0,0.0,0.0,1.0,0.0,0.0,0.0,1.0,-0.08759909868240356,0.18288081884384158,0.17235271632671353,1.2184696791468346e-07,0.0,0.0,0.0,1.2184696791468346e-07,0.0,0.0,0.0,1.2184696791468346e-07,0.0784532,-0.5295590999999988,9.9243298,8.999999999999999e-08,0.0,0.0,0.0,8.999999999999999e-08,0.0,0.0,0.0,8.999999999999999e-08
1737285435.025447,12618,1737285435,24512704,base_link,0.014618700429572617,-0.0006898350957325295,-0.5771123172180358,-0.8165336435447841,1.0,0.0,0.0,0.0,1.0,0.0,0.0,0.0,1.0,-0.1960088312625885,-0.034378010779619245,-0.2019592672586441,1.2184696791468346e-07,0.0,0.0,0.0,1.2184696791468346e-07,0.0,0.0,0.0,1.2184696791468346e-07,-0.36284605000000003,-0.19613299999999878,9.8458766,8.999999999999999e-08,0.0,0.0,0.0,8.999999999999999e-08,0.0,0.0,0.0,8.999999999999999e-08
1737285435.127462,12619,1737285435,126508864,base_link,0.013151227304596681,-0.0005896612336880632,-0.5761909285081803,-0.8172090989611492,1.0,0.0,0.0,0.0,1.0,0.0,0.0,0.0,1.0,-0.12271683663129807,0.2149566113948822,-0.06930293142795566,1.2184696791468346e-07,0.0,0.0,0.0,1.2184696791468346e-07,0.0,0.0,0.0,1.2184696791468346e-07,-0.20593965,0.2451662500000011,8.97308475,8.999999999999999e-08,0.0,0.0,0.0,8.999999999999999e-08,0.0,0.0,0.0,8.999999999999999e-08
1737285435.226483,12620,1737285435,224504768,base_link,0.011637602756388572,0.0017485270377573876,-0.5744121370415706,-0.8184816465105487,1.0,0.0,0.0,0.0,1.0,0.0,0.0,0.0,1.0,-0.07518262416124344,-0.2894519567489624,-0.13533273339271543,1.2184696791468346e-07,0.0,0.0,0.0,1.2184696791468346e-07,0.0,0.0,0.0,1.2184696791468346e-07,-0.0980665,-0.09806649999999868,10.83634825,8.999999999999999e-08,0.0,0.0,0.0,8.999999999999999e-08,0.0,0.0,0.0,8.999999999999999e-08
1737285435.3274753,12621,1737285435,325500160,base_link,0.012326168542091228,0.0022737321439558647,-0.5710607215995627,-0.8208121270774428,1.0,0.0,0.0,0.0,1.0,0.0,0.0,0.0,1.0,-0.22840966284275055,0.33482277393341064,-0.0679101794958115,1.2184696791468346e-07,0.0,0.0,0.0,1.2184696791468346e-07,0.0,0.0,0.0,1.2184696791468346e-07,-0.0588399,1.0400385073455368e-15,8.4925589,8.999999999999999e-08,0.0,0.0,0.0,8.999999999999999e-08,0.0,0.0,0.0,8.999999999999999e-08
1737285435.4264903,12622,1737285435,425494016,base_link,0.01452491996827717,0.00016149563880100376,-0.5687289041070033,-0.8223967620633734,1.0,0.0,0.0,0.0,1.0,0.0,0.0,0.0,1.0,0.027498383074998856,-0.12377350032329561,-0.16399163007736203,1.2184696791468346e-07,0.0,0.0,0.0,1.2184696791468346e-07,0.0,0.0,0.0,1.2184696791468346e-07,0.32361945000000003,-0.5099457999999988,10.4538889,8.999999999999999e-08,0.0,0.0,0.0,8.999999999999999e-08,0.0,0.0,0.0,8.999999999999999e-08
1737285435.5277429,12623,1737285435,525487104,base_link,0.013159031373426977,-0.002553973495738467,-0.5691449167534978,-0.8221279589250998,1.0,0.0,0.0,0.0,1.0,0.0,0.0,0.0,1.0,-0.0023653660900890827,0.24642795324325564,0.13464576005935666,1.2184696791468346e-07,0.0,0.0,0.0,1.2184696791468346e-07,0.0,0.0,0.0,1.2184696791468346e-07,-0.32361945000000003,0.36284605000000114,9.32612415,8.999999999999999e-08,0.0,0.0,0.0,8.999999999999999e-08,0.0,0.0,0.0,8.999999999999999e-08
1737285435.6263645,12624,1737285435,624479936,base_link,0.010766475005597657,-0.0022456757990084375,-0.5695003978252589,-0.8219174756829494,1.0,0.0,0.0,0.0,1.0,0.0,0.0,0.0,1.0,0.23316144943237305,-0.07848957180976866,0.07023826241493226,1.2184696791468346e-07,0.0,0.0,0.0,1.2184696791468346e-07,0.0,0.0,0.0,1.2184696791468346e-07,-0.2745862,0.019613300000001093,8.93385815,8.999999999999999e-08,0.0,0.0,0.0,8.999999999999999e-08,0.0,0.0,0.0,8.999999999999999e-08
1737285435.7275193,12625,1737285435,726475840,base_link,0.0097393076699636,-0.0014664674713066532,-0.5695596228018148,-0.8218910094611813,1.0,0.0,0.0,0.0,1.0,0.0,0.0,0.0,1.0,-0.010442040860652924,-0.3096391558647156,-0.01708456501364704,1.2184696791468346e-07,0.0,0.0,0.0,1.2184696791468346e-07,0.0,0.0,0.0,1.2184696791468346e-07,-0.16671305,-0.1470997499999988,9.80665,8.999999999999999e-08,0.0,0.0,0.0,8.999999999999999e-08,0.0,0.0,0.0,8.999999999999999e-08
1737285435.826532,12626,1737285435,825470464,base_link,0.013728421419467752,-0.002768103531762482,-0.5686522972509107,-0.8224587727536433,1.0,0.0,0.0,0.0,1.0,0.0,0.0,0.0,1.0,-0.16307948529720306,0.38397249579429626,0.08184085041284557,1.2184696791468346e-07,0.0,0.0,0.0,1.2184696791468346e-07,0.0,0.0,0.0,1.2184696791468346e-07,-0.2353596,-0.09806649999999893,8.7083052,8.999999999999999e-08,0.0,0.0,0.0,8.999999999999999e-08,0.0,0.0,0.0,8.999999999999999e-08
1737285435.928638,12627,1737285435,927464576,base_link,0.011802549651946442,-0.0019612442996161973,-0.5679446383580589,-0.8229797938606053,1.0,0.0,0.0,0.0,1.0,0.0,0.0,0.0,1.0,-0.205868199467659,-0.05677293986082079,-0.16303148865699768,1.2184696791468346e-07,0.0,0.0,0.0,1.2184696791468346e-07,0.0,0.0,0.0,1.2184696791468346e-07,-0.1176798,-0.5687856999999987,10.42446895,8.999999999999999e-08,0.0,0.0,0.0,8.999999999999999e-08,0.0,0.0,0.0,8.999999999999999e-08
1737285436.027442,12628,1737285436,26459968,base_link,0.006447915944892114,-0.0017547997684079005,-0.5693159963405194,-0.8220916258961298,1.0,0.0,0.0,0.0,1.0,0.0,0.0,0.0,1.0,0.009302294813096523,-0.05974576622247696,-0.007242088671773665,1.2184696791468346e-07,0.0,0.0,0.0,1.2184696791468346e-07,0.0,0.0,0.0,1.2184696791468346e-07,-0.06864655,0.34323275000000125,10.05181625,8.999999999999999e-08,0.0,0.0,0.0,8.999999999999999e-08,0.0,0.0,0.0,8.999999999999999e-08
1737285436.1316497,12629,1737285436,129455616,base_link,0.005266079786542744,0.0005840502025067979,-0.5689912749764563,-0.8223264900814696,1.0,0.0,0.0,0.0,1.0,0.0,0.0,0.0,1.0,0.07216416299343109,0.05709744244813917,-0.15344808995723724,1.2184696791468346e-07,0.0,0.0,0.0,1.2184696791468346e-07,0.0,0.0,0.0,1.2184696791468346e-07,-0.04903325,0.18632635000000122,10.091042850000001,8.999999999999999e-08,0.0,0.0,0.0,8.999999999999999e-08,0.0,0.0,0.0,8.999999999999999e-08
1737285436.229575,12630,1737285436,228450496,base_link,0.00503775840546701,0.00047231087510998945,-0.5687430318613172,-0.8224997031135526,1.0,0.0,0.0,0.0,1.0,0.0,0.0,0.0,1.0,0.16287362575531006,-0.23097939789295197,0.04523346200585368,1.2184696791468346e-07,0.0,0.0,0.0,1.2184696791468346e-07,0.0,0.0,0.0,1.2184696791468346e-07,-0.06864655,0.2549729000000013,10.1008495,8.999999999999999e-08,0.0,0.0,0.0,8.999999999999999e-08,0.0,0.0,0.0,8.999999999999999e-08
1737285436.3335714,12631,1737285436,331443840,base_link,0.009310743521263062,0.0011087835801373805,-0.5687159956035668,-0.8224805146620177,1.0,0.0,0.0,0.0,1.0,0.0,0.0,0.0,1.0,-0.15613636374473572,-0.03826861828565598,-0.051400221884250634,1.2184696791468346e-07,0.0,0.0,0.0,1.2184696791468346e-07,0.0,0.0,0.0,1.2184696791468346e-07,-0.2941995,-0.2059396499999988,9.6301303,8.999999999999999e-08,0.0,0.0,0.0,8.999999999999999e-08,0.0,0.0,0.0,8.999999999999999e-08
1737285436.4325287,12632,1737285436,431440768,base_link,0.005675182499417756,0.0019675953106333393,-0.5695377774708488,-0.8219432102681169,1.0,0.0,0.0,0.0,1.0,0.0,0.0,0.0,1.0,0.165647953748703,-0.171952411532402,0.17157503962516787,1.2184696791468346e-07,0.0,0.0,0.0,1.2184696791468346e-07,0.0,0.0,0.0,1.2184696791468346e-07,-0.04903325,-0.029419949999998765,10.091042850000001,8.999999999999999e-08,0.0,0.0,0.0,8.999999999999999e-08,0.0,0.0,0.0,8.999999999999999e-08
1737285436.5315592,12633,1737285436,529436928,base_link,0.007496293390071774,0.002508537815130831,-0.5703308290073728,-0.821377050024654,1.0,0.0,0.0,0.0,1.0,0.0,0.0,0.0,1.0,-0.1580343395471573,0.2649182379245758,0.10862102359533307,1.2184696791468346e-07,0.0,0.0,0.0,1.2184696791468346e-07,0.0,0.0,0.0,1.2184696791468346e-07,0.0392266,-0.09806649999999886,9.26728425,8.999999999999999e-08,0.0,0.0,0.0,8.999999999999999e-08,0.0,0.0,0.0,8.999999999999999e-08
1737285436.6286573,12634,1737285436,627433088,base_link,0.009748493786745466,0.001779913232413155,-0.5702061016075305,-0.8214419032818556,1.0,0.0,0.0,0.0,1.0,0.0,0.0,0.0,1.0,0.18437854945659637,-0.14380770921707156,-0.1318460255861282,1.2184696791468346e-07,0.0,0.0,0.0,1.2184696791468346e-07,0.0,0.0,0.0,1.2184696791468346e-07,-0.0588399,-0.40207264999999875,10.395049,8.999999999999999e-08,0.0,0.0,0.0,8.999999999999999e-08,0.0,0.0,0.0,8.999999999999999e-08
1737285436.7305558,12635,1737285436,728430272,base_link,0.009817298132960532,0.0010139360398455672,-0.5714631023503306,-0.8205684098496671,1.0,0.0,0.0,0.0,1.0,0.0,0.0,0.0,1.0,0.14127841591835022,0.0035090232267975872,0.05386257544159889,1.2184696791468346e-07,0.0,0.0,0.0,1.2184696791468346e-07,0.0,0.0,0.0,1.2184696791468346e-07,-0.28439285000000003,0.27458620000000117,9.7870367,8.999999999999999e-08,0.0,0.0,0.0,8.999999999999999e-08,0.0,0.0,0.0,8.999999999999999e-08
1737285436.8265648,12636,1737285436,824426432,base_link,0.01148455014591929,0.00043740276283489625,-0.5724244315981327,-0.8198769321650192,1.0,0.0,0.0,0.0,1.0,0.0,0.0,0.0,1.0,-0.12133646011352539,0.06220745295286177,-0.08761259168386461,1.2184696791468346e-07,0.0,0.0,0.0,1.2184696791468346e-07,0.0,0.0,0.0,1.2184696791468346e-07,0.2157463,-0.11767979999999865,11.0030613,8.999999999999999e-08,0.0,0.0,0.0,8.999999999999999e-08,0.0,0.0,0.0,8.999999999999999e-08
1737285436.928341,12637,1737285436,925420288,base_link,0.010470083944081486,0.0021545373256194804,-0.5731427916615601,-0.8193857917229891,1.0,0.0,0.0,0.0,1.0,0.0,0.0,0.0,1.0,-0.0319436714053154,-0.08898437023162843,-0.16975314915180206,1.2184696791468346e-07,0.0,0.0,0.0,1.2184696791468346e-07,0.0,0.0,0.0,1.2184696791468346e-07,-0.2745862,0.5785923500000011,8.97308475,8.999999999999999e-08,0.0,0.0,0.0,8.999999999999999e-08,0.0,0.0,0.0,8.999999999999999e-08
1737285437.0256457,12638,1737285437,24416960,base_link,0.007182955177354302,0.00237970549435313,-0.5747705984404903,-0.8182795985022727,1.0,0.0,0.0,0.0,1.0,0.0,0.0,0.0,1.0,0.18589717149734497,-0.2604565918445587,0.05238747596740726,1.2184696791468346e-07,0.0,0.0,0.0,1.2184696791468346e-07,0.0,0.0,0.0,1.2184696791468346e-07,-0.3138128,0.07845320000000122,9.9831697,8.999999999999999e-08,0.0,0.0,0.0,8.999999999999999e-08,0.0,0.0,0.0,8.999999999999999e-08
1737285437.1265721,12639,1737285437,125407744,base_link,0.008355661421979318,0.0007412508118502219,-0.5756915210569765,-0.8176239392609168,1.0,0.0,0.0,0.0,1.0,0.0,0.0,0.0,1.0,0.10652007907629013,0.06258093565702441,0.18718737363815308,1.2184696791468346e-07,0.0,0.0,0.0,1.2184696791468346e-07,0.0,0.0,0.0,1.2184696791468346e-07,0.0,-0.07845319999999892,8.81617835,8.999999999999999e-08,0.0,0.0,0.0,8.999999999999999e-08,0.0,0.0,0.0,8.999999999999999e-08
1737285437.225738,12640,1737285437,224401600,base_link,0.011645455378373252,0.0004252299916214193,-0.5765554644204286,-0.8169749072005998,1.0,0.0,0.0,0.0,1.0,0.0,0.0,0.0,1.0,-0.34145936369895935,0.0785725489258766,-0.08957124501466752,1.2184696791468346e-07,0.0,0.0,0.0,1.2184696791468346e-07,0.0,0.0,0.0,1.2184696791468346e-07,-0.2549729,-0.5589790499999987,10.85596155,8.999999999999999e-08,0.0,0.0,0.0,8.999999999999999e-08,0.0,0.0,0.0,8.999999999999999e-08
1737285437.3277016,12641,1737285437,326398784,base_link,0.012475690469041097,-0.00021793470537191512,-0.5767810427584399,-0.8168034882187216,1.0,0.0,0.0,0.0,1.0,0.0,0.0,0.0,1.0,-0.318203330039978,0.3725520670413971,-0.03549709916114812,1.2184696791468346e-07,0.0,0.0,0.0,1.2184696791468346e-07,0.0,0.0,0.0,1.2184696791468346e-07,0.0980665,-0.11767979999999877,10.1596894,8.999999999999999e-08,0.0,0.0,0.0,8.999999999999999e-08,0.0,0.0,0.0,8.999999999999999e-08
1737285437.4267807,12642,1737285437,425395200,base_link,0.013025748778892392,-0.0008154323800765821,-0.5759816579534238,-0.8173584248296507,1.0,0.0,0.0,0.0,1.0,0.0,0.0,0.0,1.0,0.26038262248039246,-0.43434444069862366,-0.10322321951389307,1.2184696791468346e-07,0.0,0.0,0.0,1.2184696791468346e-07,0.0,0.0,0.0,1.2184696791468346e-07,-0.0980665,-0.07845319999999865,10.95402805,8.999999999999999e-08,0.0,0.0,0.0,8.999999999999999e-08,0.0,0.0,0.0,8.999999999999999e-08
1737285437.5279462,12643,1737285437,524390336,base_link,0.012148363597110119,-0.0017529675142145637,-0.5762819173614504,-0.8171587949040365,1.0,0.0,0.0,0.0,1.0,0.0,0.0,0.0,1.0,-0.1548958122730255,0.3097378611564636,0.16304938495159146,1.2184696791468346e-07,0.0,0.0,0.0,1.2184696791468346e-07,0.0,0.0,0.0,1.2184696791468346e-07,-0.2549729,0.43149260000000106,8.42391235,8.999999999999999e-08,0.0,0.0,0.0,8.999999999999999e-08,0.0,0.0,0.0,8.999999999999999e-08
1737285437.6288273,12644,1737285437,625387008,base_link,0.007981738916041516,-0.0002883905499421191,-0.5737433600913903,-0.8189961937798051,1.0,0.0,0.0,0.0,1.0,0.0,0.0,0.0,1.0,-0.1893070638179779,0.13256846368312836,-0.08854819834232332,1.2184696791468346e-07,0.0,0.0,0.0,1.2184696791468346e-07,0.0,0.0,0.0,1.2184696791468346e-07,-0.16671305,-0.7256920999999987,9.91452315,8.999999999999999e-08,0.0,0.0,0.0,8.999999999999999e-08,0.0,0.0,0.0,8.999999999999999e-08
1737285437.725879,12645,1737285437,724384192,base_link,0.011103075845915808,-0.0016495418368219872,-0.5722014500512331,-0.8200362804643185,1.0,0.0,0.0,0.0,1.0,0.0,0.0,0.0,1.0,-0.13458026945590973,0.19004754722118378,-0.06843509525060656,1.2184696791468346e-07,0.0,0.0,0.0,1.2184696791468346e-07,0.0,0.0,0.0,1.2184696791468346e-07,0.08825985,0.04903325000000121,9.89490985,8.999999999999999e-08,0.0,0.0,0.0,8.999999999999999e-08,0.0,0.0,0.0,8.999999999999999e-08
1737285437.8272626,12646,1737285437,825378304,base_link,0.012530087911788152,-8.838845870382028e-05,-0.5716575765174541,-0.8203966140194597,1.0,0.0,0.0,0.0,1.0,0.0,0.0,0.0,1.0,-0.19195188581943512,-0.008509710431098957,-0.15427160263061523,1.2184696791468346e-07,0.0,0.0,0.0,1.2184696791468346e-07,0.0,0.0,0.0,1.2184696791468346e-07,-0.04903325,-0.2647795499999987,10.8657682,8.999999999999999e-08,0.0,0.0,0.0,8.999999999999999e-08,0.0,0.0,0.0,8.999999999999999e-08
1737285437.9259896,12647,1737285437,924373696,base_link,0.012918987296298942,-0.0014494769680794494,-0.5730950077175601,-0.8193858132241285,1.0,0.0,0.0,0.0,1.0,0.0,0.0,0.0,1.0,0.08652262389659882,-0.1138935312628746,-0.05201724544167517,1.2184696791468346e-07,0.0,0.0,0.0,1.2184696791468346e-07,0.0,0.0,0.0,1.2184696791468346e-07,-0.0980665,-0.06864654999999872,10.395049,8.999999999999999e-08,0.0,0.0,0.0,8.999999999999999e-08,0.0,0.0,0.0,8.999999999999999e-08
1737285438.0267246,12648,1737285438,25367296,base_link,0.01158358993796148,-0.0008788319381214447,-0.5739758259884084,-0.8187898382854406,1.0,0.0,0.0,0.0,1.0,0.0,0.0,0.0,1.0,0.2618550658226013,-0.10375413298606871,0.0884939953684807,1.2184696791468346e-07,0.0,0.0,0.0,1.2184696791468346e-07,0.0,0.0,0.0,1.2184696791468346e-07,-0.06864655,-0.4609125499999987,10.85596155,8.999999999999999e-08,0.0,0.0,0.0,8.999999999999999e-08,0.0,0.0,0.0,8.999999999999999e-08
1737285438.125881,12649,1737285438,124361152,base_link,0.012182629224090595,-0.00021818803370477917,-0.5743841208979182,-0.8184952153797207,1.0,0.0,0.0,0.0,1.0,0.0,0.0,0.0,1.0,-0.22041019797325134,0.09605722129344939,-0.08356155455112459,1.2184696791468346e-07,0.0,0.0,0.0,1.2184696791468346e-07,0.0,0.0,0.0,1.2184696791468346e-07,-0.2353596,-0.11767979999999884,9.52225715,8.999999999999999e-08,0.0,0.0,0.0,8.999999999999999e-08,0.0,0.0,0.0,8.999999999999999e-08
1737285438.226718,12650,1737285438,225354752,base_link,0.010903876558926504,-0.001956508571168855,-0.5743152999038913,-0.8185592305059555,1.0,0.0,0.0,0.0,1.0,0.0,0.0,0.0,1.0,-0.23545220494270325,0.343502402305603,0.0862970724701881,1.2184696791468346e-07,0.0,0.0,0.0,1.2184696791468346e-07,0.0,0.0,0.0,1.2184696791468346e-07,0.20593965,-0.09806649999999882,9.6497436,8.999999999999999e-08,0.0,0.0,0.0,8.999999999999999e-08,0.0,0.0,0.0,8.999999999999999e-08
1737285438.3258502,12651,1737285438,324349888,base_link,0.011167037731809538,-0.0027670390996906023,-0.5745535733546043,-0.8183861143179133,1.0,0.0,0.0,0.0,1.0,0.0,0.0,0.0,1.0,-0.08600679785013199,0.013964202255010588,-0.14863097667694092,1.2184696791468346e-07,0.0,0.0,0.0,1.2184696791468346e-07,0.0,0.0,0.0,1.2184696791468346e-07,-0.0980665,-0.5883989999999987,10.73828175,8.999999999999999e-08,0.0,0.0,0.0,8.999999999999999e-08,0.0,0.0,0.0,8.999999999999999e-08
1737285438.4269073,12652,1737285438,425341952,base_link,0.011192936957486724,-0.0038711054859355623,-0.5740655428508402,-0.8187236928390145,1.0,0.0,0.0,0.0,1.0,0.0,0.0,0.0,1.0,0.1582672894001007,0.085973359644413,0.01138528250157832,1.2184696791468346e-07,0.0,0.0,0.0,1.2184696791468346e-07,0.0,0.0,0.0,1.2184696791468346e-07,0.0,0.04903325000000121,9.85568325,8.999999999999999e-08,0.0,0.0,0.0,8.999999999999999e-08,0.0,0.0,0.0,8.999999999999999e-08
1737285438.5259492,12653,1737285438,524332736,base_link,0.007453292997907099,-0.0014784746206326204,-0.5722398197601739,-0.8200511271970347,1.0,0.0,0.0,0.0,1.0,0.0,0.0,0.0,1.0,0.20383264124393463,-0.34696805477142334,-0.15669900178909296,1.2184696791468346e-07,0.0,0.0,0.0,1.2184696791468346e-07,0.0,0.0,0.0,1.2184696791468346e-07,-0.24516625,-0.1078731499999987,10.60098865,8.999999999999999e-08,0.0,0.0,0.0,8.999999999999999e-08,0.0,0.0,0.0,8.999999999999999e-08
1737285438.6268368,12654,1737285438,625326080,base_link,0.008931682329526241,-0.0028861886967497404,-0.5713936230471033,-0.8206224603961775,1.0,0.0,0.0,0.0,1.0,0.0,0.0,0.0,1.0,0.22767679393291473,-0.04239993914961814,0.04880569130182267,1.2184696791468346e-07,0.0,0.0,0.0,1.2184696791468346e-07,0.0,0.0,0.0,1.2184696791468346e-07,-0.14709975,0.21574630000000106,8.65927195,8.999999999999999e-08,0.0,0.0,0.0,8.999999999999999e-08,0.0,0.0,0.0,8.999999999999999e-08
1737285438.726967,12655,1737285438,725321984,base_link,0.010197605975173999,-0.003679597073005843,-0.5700788554448273,-0.8215184526061912,1.0,0.0,0.0,0.0,1.0,0.0,0.0,0.0,1.0,-0.07751688361167908,0.1240003854036331,-0.08745248615741731,1.2184696791468346e-07,0.0,0.0,0.0,1.2184696791468346e-07,0.0,0.0,0.0,1.2184696791468346e-07,0.10787315,-0.7845319999999988,9.99297635,8.999999999999999e-08,0.0,0.0,0.0,8.999999999999999e-08,0.0,0.0,0.0,8.999999999999999e-08
1737285438.8268487,12656,1737285438,825317120,base_link,0.010332701223050722,-0.004151931000906082,-0.5691884044876627,-0.8221317150865716,1.0,0.0,0.0,0.0,1.0,0.0,0.0,0.0,1.0,-0.168421670794487,0.1759215146303177,0.11327231675386426,1.2184696791468346e-07,0.0,0.0,0.0,1.2184696791468346e-07,0.0,0.0,0.0,1.2184696791468346e-07,-0.0392266,-0.3628460499999987,10.983448,8.999999999999999e-08,0.0,0.0,0.0,8.999999999999999e-08,0.0,0.0,0.0,8.999999999999999e-08
1737285438.9272437,12657,1737285438,925310720,base_link,0.009091279206265929,-0.004660962694121414,-0.5672128829316224,-0.8235078442283081,1.0,0.0,0.0,0.0,1.0,0.0,0.0,0.0,1.0,-0.006961841601878405,0.2795754671096802,-0.01508051529526714,1.2184696791468346e-07,0.0,0.0,0.0,1.2184696791468346e-07,0.0,0.0,0.0,1.2184696791468346e-07,0.00980665,-0.6864654999999987,10.16949605,8.999999999999999e-08,0.0,0.0,0.0,8.999999999999999e-08,0.0,0.0,0.0,8.999999999999999e-08
1737285439.025887,12658,1737285439,24306624,base_link,0.007851403559185044,-0.00397958807431403,-0.5669837403766161,-0.8236819510523776,1.0,0.0,0.0,0.0,1.0,0.0,0.0,0.0,1.0,0.023813048377633095,-0.14220289885997775,-0.1659000366926193,1.2184696791468346e-07,0.0,0.0,0.0,1.2184696791468346e-07,0.0,0.0,0.0,1.2184696791468346e-07,-0.0588399,-0.05883989999999866,10.9638347,8.999999999999999e-08,0.0,0.0,0.0,8.999999999999999e-08,0.0,0.0,0.0,8.999999999999999e-08
1737285439.1282208,12659,1737285439,125306624,base_link,0.008228790649667243,-0.004032654020821116,-0.5674449081829394,-0.8233603712125377,1.0,0.0,0.0,0.0,1.0,0.0,0.0,0.0,1.0,-0.010816704481840134,0.17838862538337708,0.06816227734088895,1.2184696791468346e-07,0.0,0.0,0.0,1.2184696791468346e-07,0.0,0.0,0.0,1.2184696791468346e-07,-0.02941995,0.21574630000000122,9.8851032,8.999999999999999e-08,0.0,0.0,0.0,8.999999999999999e-08,0.0,0.0,0.0,8.999999999999999e-08
1737285439.226008,12660,1737285439,224294848,base_link,0.008274509101511517,-0.002346978919941485,-0.5663688087349911,-0.8241070298700195,1.0,0.0,0.0,0.0,1.0,0.0,0.0,0.0,1.0,0.16384625434875488,-0.25151610374450684,-0.13690027594566342,1.2184696791468346e-07,0.0,0.0,0.0,1.2184696791468346e-07,0.0,0.0,0.0,1.2184696791468346e-07,0.0,-0.33342609999999867,10.7677017,8.999999999999999e-08,0.0,0.0,0.0,8.999999999999999e-08,0.0,0.0,0.0,8.999999999999999e-08
1737285439.3274066,12661,1737285439,325280512,base_link,0.009477305239382658,-0.002535394973642546,-0.5673634050597854,-0.8234090836617562,1.0,0.0,0.0,0.0,1.0,0.0,0.0,0.0,1.0,0.18028174340724945,-0.3587328791618347,-0.11458883434534069,1.2184696791468346e-07,0.0,0.0,0.0,1.2184696791468346e-07,0.0,0.0,0.0,1.2184696791468346e-07,-0.1569064,0.009806650000001142,9.3163175,8.999999999999999e-08,0.0,0.0,0.0,8.999999999999999e-08,0.0,0.0,0.0,8.999999999999999e-08
1737285439.426095,12662,1737285439,424269504,base_link,0.011823736977144205,-0.003561675882871589,-0.5709483756663771,-0.82089309050127,1.0,0.0,0.0,0.0,1.0,0.0,0.0,0.0,1.0,0.0733884945511818,0.028138272464275388,0.2397199273109436,1.2184696791468346e-07,0.0,0.0,0.0,1.2184696791468346e-07,0.0,0.0,0.0,1.2184696791468346e-07,0.2157463,0.07845320000000107,8.6102387,8.999999999999999e-08,0.0,0.0,0.0,8.999999999999999e-08,0.0,0.0,0.0,8.999999999999999e-08
1737285439.5275872,12663,1737285439,525270272,base_link,0.011929650801229194,-0.002571180530059973,-0.5732314591454087,-0.8193026099729381,1.0,0.0,0.0,0.0,1.0,0.0,0.0,0.0,1.0,0.16249866783618927,-0.2996433675289154,0.03790858387947086,1.2184696791468346e-07,0.0,0.0,0.0,1.2184696791468346e-07,0.0,0.0,0.0,1.2184696791468346e-07,-0.0588399,-0.5197524499999988,9.5320638,8.999999999999999e-08,0.0,0.0,0.0,8.999999999999999e-08,0.0,0.0,0.0,8.999999999999999e-08
1737285439.6277065,12664,1737285439,624264896,base_link,0.013540065790592092,-0.0032663747753730837,-0.5765077733717592,-0.8169729399779099,1.0,0.0,0.0,0.0,1.0,0.0,0.0,0.0,1.0,-0.30047962069511414,0.20027399063110354,0.11510512232780454,1.2184696791468346e-07,0.0,0.0,0.0,1.2184696791468346e-07,0.0,0.0,0.0,1.2184696791468346e-07,-0.04903325,-0.6570455499999988,10.69905515,8.999999999999999e-08,0.0,0.0,0.0,8.999999999999999e-08,0.0,0.0,0.0,8.999999999999999e-08
1737285439.7281644,12665,1737285439,726259008,base_link,0.01362151063904622,-0.002939365371187166,-0.5770745308851016,-0.8165725934556369,1.0,0.0,0.0,0.0,1.0,0.0,0.0,0.0,1.0,-0.15088623762130737,0.11187423020601271,-0.15315642952919006,1.2184696791468346e-07,0.0,0.0,0.0,1.2184696791468346e-07,0.0,0.0,0.0,1.2184696791468346e-07,-0.0588399,0.31381280000000117,9.7674234,8.999999999999999e-08,0.0,0.0,0.0,8.999999999999999e-08,0.0,0.0,0.0,8.999999999999999e-08
1737285439.826291,12666,1737285439,824252096,base_link,0.010911398095480487,-0.0029419170239736126,-0.5779096060830543,-0.8160225326011254,1.0,0.0,0.0,0.0,1.0,0.0,0.0,0.0,1.0,0.0207635760307312,-0.10116489976644516,-0.023543776944279657,1.2184696791468346e-07,0.0,0.0,0.0,1.2184696791468346e-07,0.0,0.0,0.0,1.2184696791468346e-07,-0.1765197,0.039226600000001284,10.46369555,8.999999999999999e-08,0.0,0.0,0.0,8.999999999999999e-08,0.0,0.0,0.0,8.999999999999999e-08
1737285439.9272623,12667,1737285439,925246720,base_link,0.013320547517939351,-0.0013999623957175608,-0.5780782695779132,-0.8158713853058694,1.0,0.0,0.0,0.0,1.0,0.0,0.0,0.0,1.0,0.014539424329996109,-0.1860069185495377,-0.17031091451644895,1.2184696791468346e-07,0.0,0.0,0.0,1.2184696791468346e-07,0.0,0.0,0.0,1.2184696791468346e-07,-0.18632635,-0.04903324999999877,10.03220295,8.999999999999999e-08,0.0,0.0,0.0,8.999999999999999e-08,0.0,0.0,0.0,8.999999999999999e-08
1737285440.0261045,12668,1737285440,24242624,base_link,0.010924063289484988,-0.002350820625669519,-0.5783612029360222,-0.8157042708126703,1.0,0.0,0.0,0.0,1.0,0.0,0.0,0.0,1.0,0.28159505128860474,-0.1848255395889282,0.14388114213943484,1.2184696791468346e-07,0.0,0.0,0.0,1.2184696791468346e-07,0.0,0.0,0.0,1.2184696791468346e-07,-0.30400615,0.42168595000000114,9.3555441,8.999999999999999e-08,0.0,0.0,0.0,8.999999999999999e-08,0.0,0.0,0.0,8.999999999999999e-08
1737285440.126268,12669,1737285440,124236736,base_link,0.010366484943683125,-0.0011413777332289368,-0.5776662364803562,-0.8162064398651873,1.0,0.0,0.0,0.0,1.0,0.0,0.0,0.0,1.0,0.04176986590027809,-0.0736636146903038,0.04272598773241044,1.2184696791468346e-07,0.0,0.0,0.0,1.2184696791468346e-07,0.0,0.0,0.0,1.2184696791468346e-07,-0.02941995,-0.4216859499999988,9.50264385,8.999999999999999e-08,0.0,0.0,0.0,8.999999999999999e-08,0.0,0.0,0.0,8.999999999999999e-08
1737285440.2272503,12670,1737285440,225232128,base_link,0.011446066045624181,-0.0006123825025654805,-0.5787237467359237,-0.8154430927561311,1.0,0.0,0.0,0.0,1.0,0.0,0.0,0.0,1.0,0.13600488007068634,-0.09714144468307492,0.18892839550971985,1.2184696791468346e-07,0.0,0.0,0.0,1.2184696791468346e-07,0.0,0.0,0.0,1.2184696791468346e-07,-0.2745862,0.11767980000000111,9.1201845,8.999999999999999e-08,0.0,0.0,0.0,8.999999999999999e-08,0.0,0.0,0.0,8.999999999999999e-08
1737285440.326114,12671,1737285440,324224192,base_link,0.013168130921319418,0.00083152180795431,-0.5780954317788308,-0.8158624765583775,1.0,0.0,0.0,0.0,1.0,0.0,0.0,0.0,1.0,-0.10777799040079117,-0.032587639987468726,-0.07680699229240417,1.2184696791468346e-07,0.0,0.0,0.0,1.2184696791468346e-07,0.0,0.0,0.0,1.2184696791468346e-07,0.0196133,-0.6472388999999988,9.60071035,8.999999999999999e-08,0.0,0.0,0.0,8.999999999999999e-08,0.0,0.0,0.0,8.999999999999999e-08
1737285440.4271653,12672,1737285440,425223168,base_link,0.014547389197019506,-1.850923594655839e-05,-0.577384083996976,-0.8163430606503197,1.0,0.0,0.0,0.0,1.0,0.0,0.0,0.0,1.0,0.053501300513744354,0.05437580123543741,0.08670296519994736,1.2184696791468346e-07,0.0,0.0,0.0,1.2184696791468346e-07,0.0,0.0,0.0,1.2184696791468346e-07,0.0196133,-0.1176797999999989,8.95347145,8.999999999999999e-08,0.0,0.0,0.0,8.999999999999999e-08,0.0,0.0,0.0,8.999999999999999e-08
1737285440.5261803,12673,1737285440,524219840,base_link,0.01594156465425941,-0.0009286126271161497,-0.577105352669041,-0.8165135737485963,1.0,0.0,0.0,0.0,1.0,0.0,0.0,0.0,1.0,-0.29421862959861755,0.19621799886226654,0.07916732877492902,1.2184696791468346e-07,0.0,0.0,0.0,1.2184696791468346e-07,0.0,0.0,0.0,1.2184696791468346e-07,-0.04903325,-0.3236194499999988,9.5320638,8.999999999999999e-08,0.0,0.0,0.0,8.999999999999999e-08,0.0,0.0,0.0,8.999999999999999e-08
1737285440.6273189,12674,1737285440,626213184,base_link,0.017286564387419618,-0.001700841357276612,-0.5771055709053623,-0.8164848081013831,1.0,0.0,0.0,0.0,1.0,0.0,0.0,0.0,1.0,-0.1686069667339325,0.19864465296268466,0.13829888403415677,1.2184696791468346e-07,0.0,0.0,0.0,1.2184696791468346e-07,0.0,0.0,0.0,1.2184696791468346e-07,0.02941995,0.23535960000000122,9.9831697,8.999999999999999e-08,0.0,0.0,0.0,8.999999999999999e-08,0.0,0.0,0.0,8.999999999999999e-08
1737285440.7264743,12675,1737285440,725208064,base_link,0.018527207212794508,-0.0015573298956630427,-0.5778843252098911,-0.8159068721325976,1.0,0.0,0.0,0.0,1.0,0.0,0.0,0.0,1.0,-0.2884630858898163,0.0851336419582367,-0.03980809077620508,1.2184696791468346e-07,0.0,0.0,0.0,1.2184696791468346e-07,0.0,0.0,0.0,1.2184696791468346e-07,-0.0392266,-0.3824593499999988,9.93413645,8.999999999999999e-08,0.0,0.0,0.0,8.999999999999999e-08,0.0,0.0,0.0,8.999999999999999e-08
1737285440.825321,12676,1737285440,824201920,base_link,0.015869765916976645,-0.0012506681956461296,-0.57772506503672,-0.8160761824652907,1.0,0.0,0.0,0.0,1.0,0.0,0.0,0.0,1.0,0.042209114879369736,0.0578681081533432,0.011517602950334542,1.2184696791468346e-07,0.0,0.0,0.0,1.2184696791468346e-07,0.0,0.0,0.0,1.2184696791468346e-07,-0.0196133,-0.13729309999999875,10.03220295,8.999999999999999e-08,0.0,0.0,0.0,8.999999999999999e-08,0.0,0.0,0.0,8.999999999999999e-08
1737285440.9256163,12677,1737285440,924199872,base_link,0.012511725387911315,-0.0005511107848427357,-0.5785595128711871,-0.8155440166361193,1.0,0.0,0.0,0.0,1.0,0.0,0.0,0.0,1.0,-0.13488535583019257,-0.08735773712396623,-0.06429731100797652,1.2184696791468346e-07,0.0,0.0,0.0,1.2184696791468346e-07,0.0,0.0,0.0,1.2184696791468346e-07,-0.1569064,-0.5295590999999987,11.05209455,8.999999999999999e-08,0.0,0.0,0.0,8.999999999999999e-08,0.0,0.0,0.0,8.999999999999999e-08
1737285441.0271869,12678,1737285441,25195776,base_link,0.01373327919969076,-0.0020959396755148504,-0.5804664226664469,-0.8141656687899077,1.0,0.0,0.0,0.0,1.0,0.0,0.0,0.0,1.0,-0.22585704922676086,0.35010138154029846,0.044083569198846775,1.2184696791468346e-07,0.0,0.0,0.0,1.2184696791468346e-07,0.0,0.0,0.0,1.2184696791468346e-07,-0.20593965,0.7158854500000011,8.9436648,8.999999999999999e-08,0.0,0.0,0.0,8.999999999999999e-08,0.0,0.0,0.0,8.999999999999999e-08
1737285441.1263435,12679,1737285441,124189376,base_link,0.01642997777751318,-0.0009478795842929564,-0.582570606445721,-0.8126134664525247,1.0,0.0,0.0,0.0,1.0,0.0,0.0,0.0,1.0,-0.191361665725708,-0.07024561613798143,-0.09252239018678664,1.2184696791468346e-07,0.0,0.0,0.0,1.2184696791468346e-07,0.0,0.0,0.0,1.2184696791468346e-07,0.04903325,-0.4020726499999987,11.01286795,8.999999999999999e-08,0.0,0.0,0.0,8.999999999999999e-08,0.0,0.0,0.0,8.999999999999999e-08
1737285441.2253487,12680,1737285441,224186816,base_link,0.013376498489821633,0.0005906179860206549,-0.5825414924756904,-0.8126906730132578,1.0,0.0,0.0,0.0,1.0,0.0,0.0,0.0,1.0,-0.014215044677257538,0.1300061792135239,0.1321887373924255,1.2184696791468346e-07,0.0,0.0,0.0,1.2184696791468346e-07,0.0,0.0,0.0,1.2184696791468346e-07,-0.3138128,0.28439285000000114,9.24767095,8.999999999999999e-08,0.0,0.0,0.0,8.999999999999999e-08,0.0,0.0,0.0,8.999999999999999e-08
1737285441.3272245,12681,1737285441,325181440,base_link,0.01552787334166209,-0.00020918690506407326,-0.5806374627313318,-0.8140141142899457,1.0,0.0,0.0,0.0,1.0,0.0,0.0,0.0,1.0,-0.3462862968444824,0.16031895577907562,-0.09652460366487504,1.2184696791468346e-07,0.0,0.0,0.0,1.2184696791468346e-07,0.0,0.0,0.0,1.2184696791468346e-07,0.2549729,-0.6864654999999987,9.97336305,8.999999999999999e-08,0.0,0.0,0.0,8.999999999999999e-08,0.0,0.0,0.0,8.999999999999999e-08
1737285441.4265091,12682,1737285441,424176320,base_link,0.0105696683664943,0.0007987931025955429,-0.5774261837899,-0.816374084788361,1.0,0.0,0.0,0.0,1.0,0.0,0.0,0.0,1.0,0.1475340574979782,-0.28369635343551636,-0.22011218965053556,1.2184696791468346e-07,0.0,0.0,0.0,1.2184696791468346e-07,0.0,0.0,0.0,1.2184696791468346e-07,-0.3334261,-0.47071919999999867,10.79712165,8.999999999999999e-08,0.0,0.0,0.0,8.999999999999999e-08,0.0,0.0,0.0,8.999999999999999e-08
1737285441.5256,12683,1737285441,524171712,base_link,0.011749042895994615,-0.0009818692682125295,-0.5769855073134681,-0.8166692845172934,1.0,0.0,0.0,0.0,1.0,0.0,0.0,0.0,1.0,-0.002875083591789007,-0.07490617036819458,0.04897237196564675,1.2184696791468346e-07,0.0,0.0,0.0,1.2184696791468346e-07,0.0,0.0,0.0,1.2184696791468346e-07,-0.28439285000000003,0.26477955000000114,9.3359308,8.999999999999999e-08,0.0,0.0,0.0,8.999999999999999e-08,0.0,0.0,0.0,8.999999999999999e-08
1737285441.6275246,12684,1737285441,625169408,base_link,0.009258572832373056,0.001429576809778846,-0.5748715733269727,-0.8181900203008001,1.0,0.0,0.0,0.0,1.0,0.0,0.0,0.0,1.0,-0.010605882853269577,-0.2988194227218628,-0.09800149500370021,1.2184696791468346e-07,0.0,0.0,0.0,1.2184696791468346e-07,0.0,0.0,0.0,1.2184696791468346e-07,-0.44129925000000003,-0.4707191999999987,9.9635564,8.999999999999999e-08,0.0,0.0,0.0,8.999999999999999e-08,0.0,0.0,0.0,8.999999999999999e-08
1737285441.725384,12685,1737285441,724165568,base_link,0.011489108147750502,0.0010495045181789894,-0.5747605894957719,-0.8182402848165741,1.0,0.0,0.0,0.0,1.0,0.0,0.0,0.0,1.0,-0.3111982047557831,0.43243491649627686,0.16663342714309687,1.2184696791468346e-07,0.0,0.0,0.0,1.2184696791468346e-07,0.0,0.0,0.0,1.2184696791468346e-07,-0.1569064,0.21574630000000106,8.4141057,8.999999999999999e-08,0.0,0.0,0.0,8.999999999999999e-08,0.0,0.0,0.0,8.999999999999999e-08
1737285441.8274276,12686,1737285441,825162752,base_link,0.008773272705065312,0.0023032760557508266,-0.577852883804812,-0.8160905398814007,1.0,0.0,0.0,0.0,1.0,0.0,0.0,0.0,1.0,-0.12017986178398132,-0.022564696148037907,0.040387384593486786,1.2184696791468346e-07,0.0,0.0,0.0,1.2184696791468346e-07,0.0,0.0,0.0,1.2184696791468346e-07,-0.196133,-0.4609125499999986,11.20900095,8.999999999999999e-08,0.0,0.0,0.0,8.999999999999999e-08,0.0,0.0,0.0,8.999999999999999e-08
1737285441.9282837,12687,1737285441,924158912,base_link,0.011743607520001248,-6.583542181572059e-05,-0.5805930899391429,-0.8141091740442626,1.0,0.0,0.0,0.0,1.0,0.0,0.0,0.0,1.0,0.02133435755968094,0.14488554000854492,0.05482327938079832,1.2184696791468346e-07,0.0,0.0,0.0,1.2184696791468346e-07,0.0,0.0,0.0,1.2184696791468346e-07,0.12748645,0.07845320000000125,10.20872265,8.999999999999999e-08,0.0,0.0,0.0,8.999999999999999e-08,0.0,0.0,0.0,8.999999999999999e-08
1737285442.0273092,12688,1737285442,26153280,base_link,0.010035543207247566,-0.0007071231751620172,-0.582218972795669,-0.8129697753090864,1.0,0.0,0.0,0.0,1.0,0.0,0.0,0.0,1.0,0.03961744159460068,-0.10441151261329651,-0.020602537319064126,1.2184696791468346e-07,0.0,0.0,0.0,1.2184696791468346e-07,0.0,0.0,0.0,1.2184696791468346e-07,-0.2353596,-0.5491723999999987,10.6500219,8.999999999999999e-08,0.0,0.0,0.0,8.999999999999999e-08,0.0,0.0,0.0,8.999999999999999e-08
1737285442.127028,12689,1737285442,124144576,base_link,0.009893305588156816,0.0005732805287144749,-0.5823819241611405,-0.8128548998833324,1.0,0.0,0.0,0.0,1.0,0.0,0.0,0.0,1.0,-0.22501681745052338,0.029118226841092106,-0.0424068532884121,1.2184696791468346e-07,0.0,0.0,0.0,1.2184696791468346e-07,0.0,0.0,0.0,1.2184696791468346e-07,-0.28439285000000003,-0.10787314999999877,10.0616229,8.999999999999999e-08,0.0,0.0,0.0,8.999999999999999e-08,0.0,0.0,0.0,8.999999999999999e-08
1737285442.2286108,12690,1737285442,225140480,base_link,0.012169856552827213,-0.0013728644228620272,-0.5811256651816689,-0.813721679139694,1.0,0.0,0.0,0.0,1.0,0.0,0.0,0.0,1.0,-0.15056830644607544,0.2527509331703186,-0.11559876054525378,1.2184696791468346e-07,0.0,0.0,0.0,1.2184696791468346e-07,0.0,0.0,0.0,1.2184696791468346e-07,0.10787315,-0.31381279999999884,9.40457735,8.999999999999999e-08,0.0,0.0,0.0,8.999999999999999e-08,0.0,0.0,0.0,8.999999999999999e-08
1737285442.3260164,12691,1737285442,324134336,base_link,0.009449912422763449,-0.0018911803432952604,-0.5812666151317913,-0.8136560973318772,1.0,0.0,0.0,0.0,1.0,0.0,0.0,0.0,1.0,0.08663080632686615,-0.10824654996395108,0.22122883796691895,1.2184696791468346e-07,0.0,0.0,0.0,1.2184696791468346e-07,0.0,0.0,0.0,1.2184696791468346e-07,0.0980665,-0.009806649999998715,10.4931155,8.999999999999999e-08,0.0,0.0,0.0,8.999999999999999e-08,0.0,0.0,0.0,8.999999999999999e-08
1737285442.4284928,12692,1737285442,425130496,base_link,0.006954142779227199,-0.0010389724736631026,-0.5810392658038822,-0.8138451523652952,1.0,0.0,0.0,0.0,1.0,0.0,0.0,0.0,1.0,0.1278681606054306,-0.03028060868382452,0.1799032986164093,1.2184696791468346e-07,0.0,0.0,0.0,1.2184696791468346e-07,0.0,0.0,0.0,1.2184696791468346e-07,-0.392266,-0.8335652499999987,9.8654899,8.999999999999999e-08,0.0,0.0,0.0,8.999999999999999e-08,0.0,0.0,0.0,8.999999999999999e-08
1737285442.5273097,12693,1737285442,524130240,base_link,0.010591799968330822,-0.0026991643062526495,-0.5814208034770698,-0.8135295800212535,1.0,0.0,0.0,0.0,1.0,0.0,0.0,0.0,1.0,-0.10452233999967575,0.3571433424949646,0.08761836588382717,1.2184696791468346e-07,0.0,0.0,0.0,1.2184696791468346e-07,0.0,0.0,0.0,1.2184696791468346e-07,0.0980665,0.029419950000001277,10.42446895,8.999999999999999e-08,0.0,0.0,0.0,8.999999999999999e-08,0.0,0.0,0.0,8.999999999999999e-08
1737285442.6283176,12694,1737285442,626126912,base_link,0.012256257781873555,-0.002148902339177987,-0.5802754844270304,-0.8143251982696448,1.0,0.0,0.0,0.0,1.0,0.0,0.0,0.0,1.0,0.25038763880729675,-0.08365363627672194,0.059668503701686866,1.2184696791468346e-07,0.0,0.0,0.0,1.2184696791468346e-07,0.0,0.0,0.0,1.2184696791468346e-07,0.0,0.06864655000000128,10.48330885,8.999999999999999e-08,0.0,0.0,0.0,8.999999999999999e-08,0.0,0.0,0.0,8.999999999999999e-08
1737285442.728403,12695,1737285442,725122816,base_link,0.011859606574555539,-0.0032299194998953494,-0.578681842536691,-0.8154607547088095,1.0,0.0,0.0,0.0,1.0,0.0,0.0,0.0,1.0,-0.07499158382415771,0.11183072626590727,-0.0644282177090645,1.2184696791468346e-07,0.0,0.0,0.0,1.2184696791468346e-07,0.0,0.0,0.0,1.2184696791468346e-07,-0.1569064,-0.3432327499999988,9.610517,8.999999999999999e-08,0.0,0.0,0.0,8.999999999999999e-08,0.0,0.0,0.0,8.999999999999999e-08
1737285442.8262913,12696,1737285442,824116672,base_link,0.009343451157268857,-0.0025557646901760555,-0.5759992803578988,-0.8173928046016204,1.0,0.0,0.0,0.0,1.0,0.0,0.0,0.0,1.0,0.3504611551761627,-0.22884804010391235,-0.052278712391853305,1.2184696791468346e-07,0.0,0.0,0.0,1.2184696791468346e-07,0.0,0.0,0.0,1.2184696791468346e-07,0.0,0.2647795500000012,9.7281968,8.999999999999999e-08,0.0,0.0,0.0,8.999999999999999e-08,0.0,0.0,0.0,8.999999999999999e-08
1737285442.930399,12697,1737285442,927113088,base_link,0.013392449912938862,-0.004038045065300847,-0.5768404267819093,-0.8167370804043641,1.0,0.0,0.0,0.0,1.0,0.0,0.0,0.0,1.0,-0.10625660419464111,0.07673043012619017,-0.11807805299758913,1.2184696791468346e-07,0.0,0.0,0.0,1.2184696791468346e-07,0.0,0.0,0.0,1.2184696791468346e-07,-0.16671305,0.2059396500000011,8.9828914,8.999999999999999e-08,0.0,0.0,0.0,8.999999999999999e-08,0.0,0.0,0.0,8.999999999999999e-08
1737285443.0262399,12698,1737285443,24110016,base_link,0.008998553525453801,-0.0024583378630443353,-0.5792632554133827,-0.8150871508846712,1.0,0.0,0.0,0.0,1.0,0.0,0.0,0.0,1.0,0.04622792825102806,-0.13744685053825378,0.03742056712508203,1.2184696791468346e-07,0.0,0.0,0.0,1.2184696791468346e-07,0.0,0.0,0.0,1.2184696791468346e-07,-0.28439285000000003,-0.3432327499999988,9.7281968,8.999999999999999e-08,0.0,0.0,0.0,8.999999999999999e-08,0.0,0.0,0.0,8.999999999999999e-08
1737285443.1291528,12699,1737285443,127106944,base_link,0.006211486963668224,-9.889702314996031e-05,-0.5818069113535442,-0.8133032187015666,1.0,0.0,0.0,0.0,1.0,0.0,0.0,0.0,1.0,-0.07009965181350708,-0.07065704464912415,-0.009733942337334147,1.2184696791468346e-07,0.0,0.0,0.0,1.2184696791468346e-07,0.0,0.0,0.0,1.2184696791468346e-07,0.0392266,-0.2157462999999989,9.1397978,8.999999999999999e-08,0.0,0.0,0.0,8.999999999999999e-08,0.0,0.0,0.0,8.999999999999999e-08
1737285443.2317955,12700,1737285443,229104128,base_link,0.008816331807168043,-0.0016391840702250397,-0.5831569141896435,-0.812310038594786,1.0,0.0,0.0,0.0,1.0,0.0,0.0,0.0,1.0,-0.18706724047660828,0.3146199882030487,-0.0486986488103867,1.2184696791468346e-07,0.0,0.0,0.0,1.2184696791468346e-07,0.0,0.0,0.0,1.2184696791468346e-07,0.10787315,-0.24516624999999878,9.93413645,8.999999999999999e-08,0.0,0.0,0.0,8.999999999999999e-08,0.0,0.0,0.0,8.999999999999999e-08
1737285443.3286693,12701,1737285443,327097216,base_link,0.0075367172598796,-0.0003672735933190625,-0.5839123426311766,-0.8117816449797468,1.0,0.0,0.0,0.0,1.0,0.0,0.0,0.0,1.0,-0.11307136714458466,-0.1543145626783371,0.034482501447200796,1.2184696791468346e-07,0.0,0.0,0.0,1.2184696791468346e-07,0.0,0.0,0.0,1.2184696791468346e-07,-0.20593965,-0.14709974999999867,11.0226746,8.999999999999999e-08,0.0,0.0,0.0,8.999999999999999e-08,0.0,0.0,0.0,8.999999999999999e-08
1737285443.427531,12702,1737285443,426091072,base_link,0.00974456168140354,-0.0005168200507447645,-0.5816712763334222,-0.813365417695712,1.0,0.0,0.0,0.0,1.0,0.0,0.0,0.0,1.0,-0.009533429518342018,-0.11686524003744128,-0.2580603361129761,1.2184696791468346e-07,0.0,0.0,0.0,1.2184696791468346e-07,0.0,0.0,0.0,1.2184696791468346e-07,-0.0588399,-0.42168594999999887,9.18883105,8.999999999999999e-08,0.0,0.0,0.0,8.999999999999999e-08,0.0,0.0,0.0,8.999999999999999e-08
1737285443.5267725,12703,1737285443,525082624,base_link,0.008182573145058209,-0.0019092757136631102,-0.5805138526183395,-0.8142070173372296,1.0,0.0,0.0,0.0,1.0,0.0,0.0,0.0,1.0,0.10094808787107468,-0.00650609470903872,0.11713404953479767,1.2184696791468346e-07,0.0,0.0,0.0,1.2184696791468346e-07,0.0,0.0,0.0,1.2184696791468346e-07,-0.1372931,0.04903325000000123,10.0420096,8.999999999999999e-08,0.0,0.0,0.0,8.999999999999999e-08,0.0,0.0,0.0,8.999999999999999e-08
1737285443.6275024,12704,1737285443,625075200,base_link,0.009593580597276823,-0.0028603024459765,-0.5801431316957961,-0.8144530241993305,1.0,0.0,0.0,0.0,1.0,0.0,0.0,0.0,1.0,-0.15780453383922577,0.21836385130882266,0.18326877057552335,1.2184696791468346e-07,0.0,0.0,0.0,1.2184696791468346e-07,0.0,0.0,0.0,1.2184696791468346e-07,-0.14709975,-0.29419949999999884,9.79684335,8.999999999999999e-08,0.0,0.0,0.0,8.999999999999999e-08,0.0,0.0,0.0,8.999999999999999e-08
1737285443.7259424,12705,1737285443,724071616,base_link,0.011594459082998863,-0.0030461778634213958,-0.5797757660660484,-0.814687885267434,1.0,0.0,0.0,0.0,1.0,0.0,0.0,0.0,1.0,-0.11701297014951706,0.2719379663467407,0.009408096782863107,1.2184696791468346e-07,0.0,0.0,0.0,1.2184696791468346e-07,0.0,0.0,0.0,1.2184696791468346e-07,-0.12748645,-0.06864654999999875,10.198916,8.999999999999999e-08,0.0,0.0,0.0,8.999999999999999e-08,0.0,0.0,0.0,8.999999999999999e-08
1737285443.8266213,12706,1737285443,825064960,base_link,0.010395362279975241,-0.0045315983740676176,-0.5800881167345632,-0.814474786523556,1.0,0.0,0.0,0.0,1.0,0.0,0.0,0.0,1.0,0.12997350096702576,-0.09772532433271408,0.048326764255762114,1.2184696791468346e-07,0.0,0.0,0.0,1.2184696791468346e-07,0.0,0.0,0.0,1.2184696791468346e-07,-0.26477955,-0.4609125499999986,11.1011278,8.999999999999999e-08,0.0,0.0,0.0,8.999999999999999e-08,0.0,0.0,0.0,8.999999999999999e-08
1737285443.9367778,12707,1737285443,935056256,base_link,0.0087462189423294,-0.0026462043273336833,-0.5791927265752868,-0.8151394277908265,1.0,0.0,0.0,0.0,1.0,0.0,0.0,0.0,1.0,0.13107560575008392,-0.2233269065618515,-0.00773259671404955,1.2184696791468346e-07,0.0,0.0,0.0,1.2184696791468346e-07,0.0,0.0,0.0,1.2184696791468346e-07,0.0392266,1.0928811104901135e-15,8.924051500000001,8.999999999999999e-08,0.0,0.0,0.0,8.999999999999999e-08,0.0,0.0,0.0,8.999999999999999e-08
1737285444.026599,12708,1737285444,25049856,base_link,0.010053562315730359,-0.003234261273798334,-0.5802772028549209,-0.8143505592100035,1.0,0.0,0.0,0.0,1.0,0.0,0.0,0.0,1.0,-0.12714125216007233,0.34914878010749817,0.20452976226806635,1.2184696791468346e-07,0.0,0.0,0.0,1.2184696791468346e-07,0.0,0.0,0.0,1.2184696791468346e-07,-0.10787315,-0.2647795499999989,8.77695175,8.999999999999999e-08,0.0,0.0,0.0,8.999999999999999e-08,0.0,0.0,0.0,8.999999999999999e-08
1737285444.125661,12709,1737285444,124044992,base_link,0.012203782001847541,-0.004087857342533934,-0.5818504085923468,-0.8131939861731131,1.0,0.0,0.0,0.0,1.0,0.0,0.0,0.0,1.0,-0.14331892132759094,0.0628199502825737,-0.01904204487800599,1.2184696791468346e-07,0.0,0.0,0.0,1.2184696791468346e-07,0.0,0.0,0.0,1.2184696791468346e-07,-0.28439285000000003,0.43149260000000106,8.63965865,8.999999999999999e-08,0.0,0.0,0.0,8.999999999999999e-08,0.0,0.0,0.0,8.999999999999999e-08
1737285444.225687,12710,1737285444,225039360,base_link,0.010825435252251018,-0.0016605933924451251,-0.5806961705787802,-0.8140466877620254,1.0,0.0,0.0,0.0,1.0,0.0,0.0,0.0,1.0,0.27666762471199036,-0.35197415947914124,-0.0994302779436111,1.2184696791468346e-07,0.0,0.0,0.0,1.2184696791468346e-07,0.0,0.0,0.0,1.2184696791468346e-07,-0.1765197,-0.32361944999999875,10.267562550000001,8.999999999999999e-08,0.0,0.0,0.0,8.999999999999999e-08,0.0,0.0,0.0,8.999999999999999e-08
1737285444.3276536,12711,1737285444,326031424,base_link,0.013439873612793522,-0.001898327085224612,-0.580288175588862,-0.8142981023085463,1.0,0.0,0.0,0.0,1.0,0.0,0.0,0.0,1.0,0.023902645334601402,-0.19098970293998718,-0.08637041598558423,1.2184696791468346e-07,0.0,0.0,0.0,1.2184696791468346e-07,0.0,0.0,0.0,1.2184696791468346e-07,0.00980665,-0.4314925999999987,10.3362091,8.999999999999999e-08,0.0,0.0,0.0,8.999999999999999e-08,0.0,0.0,0.0,8.999999999999999e-08
1737285444.4295049,12712,1737285444,425025024,base_link,0.016262656155216725,-0.002263875476883939,-0.5787675318210524,-0.8153272625101957,1.0,0.0,0.0,0.0,1.0,0.0,0.0,0.0,1.0,0.13205163180828094,-0.1725026369094849,-0.20425586402416226,1.2184696791468346e-07,0.0,0.0,0.0,1.2184696791468346e-07,0.0,0.0,0.0,1.2184696791468346e-07,-0.1569064,-0.029419949999998824,9.610517,8.999999999999999e-08,0.0,0.0,0.0,8.999999999999999e-08,0.0,0.0,0.0,8.999999999999999e-08
1737285444.5263104,12713,1737285444,524018112,base_link,0.011266277389280337,-0.0006148180258174522,-0.5772065867432653,-0.8165202074736253,1.0,0.0,0.0,0.0,1.0,0.0,0.0,0.0,1.0,0.1697549968957901,-0.32453659176826477,-0.10232907533645626,1.2184696791468346e-07,0.0,0.0,0.0,1.2184696791468346e-07,0.0,0.0,0.0,1.2184696791468346e-07,-0.1765197,0.09806650000000118,9.65955025,8.999999999999999e-08,0.0,0.0,0.0,8.999999999999999e-08,0.0,0.0,0.0,8.999999999999999e-08
1737285444.6272454,12714,1737285444,625012736,base_link,0.010896604307074577,-0.0016005391712558576,-0.5768861760702885,-0.8167502936319868,1.0,0.0,0.0,0.0,1.0,0.0,0.0,0.0,1.0,0.02580913156270981,-0.003991916775703423,0.055839307606220245,1.2184696791468346e-07,0.0,0.0,0.0,1.2184696791468346e-07,0.0,0.0,0.0,1.2184696791468346e-07,-0.32361945000000003,0.23535960000000108,8.81617835,8.999999999999999e-08,0.0,0.0,0.0,8.999999999999999e-08,0.0,0.0,0.0,8.999999999999999e-08
1737285444.7258027,12715,1737285444,724009408,base_link,0.013902953679667393,-0.0010062869764158515,-0.5764088587261713,-0.8170425465344474,1.0,0.0,0.0,0.0,1.0,0.0,0.0,0.0,1.0,-0.34807291626930237,0.07953550666570662,-0.10109923034906389,1.2184696791468346e-07,0.0,0.0,0.0,1.2184696791468346e-07,0.0,0.0,0.0,1.2184696791468346e-07,-0.1372931,-0.4216859499999988,9.6889702,8.999999999999999e-08,0.0,0.0,0.0,8.999999999999999e-08,0.0,0.0,0.0,8.999999999999999e-08
1737285444.827754,12716,1737285444,826002752,base_link,0.01351205934860773,-0.001709823983416078,-0.5761290696230347,-0.8172452483125259,1.0,0.0,0.0,0.0,1.0,0.0,0.0,0.0,1.0,-0.23166200518608093,0.22525808215141296,-0.01868588663637641,1.2184696791468346e-07,0.0,0.0,0.0,1.2184696791468346e-07,0.0,0.0,0.0,1.2184696791468346e-07,-0.04903325,0.35303940000000117,9.58109705,8.999999999999999e-08,0.0,0.0,0.0,8.999999999999999e-08,0.0,0.0,0.0,8.999999999999999e-08
1737285444.925998,12717,1737285444,924997120,base_link,0.015185791979543398,-0.003326436962230614,-0.5789787829694896,-0.8151943911793427,1.0,0.0,0.0,0.0,1.0,0.0,0.0,0.0,1.0,-0.4019981622695923,0.36784860491752625,0.1976486891508102,1.2184696791468346e-07,0.0,0.0,0.0,1.2184696791468346e-07,0.0,0.0,0.0,1.2184696791468346e-07,-0.0980665,-0.17651969999999878,10.0420096,8.999999999999999e-08,0.0,0.0,0.0,8.999999999999999e-08,0.0,0.0,0.0,8.999999999999999e-08
1737285445.0276814,12718,1737285445,25989440,base_link,0.013071968382844907,-0.0031410155725248735,-0.5812919348983091,-0.8135840116951356,1.0,0.0,0.0,0.0,1.0,0.0,0.0,0.0,1.0,-0.2342858463525772,0.17737092077732086,0.005054303910583236,1.2184696791468346e-07,0.0,0.0,0.0,1.2184696791468346e-07,0.0,0.0,0.0,1.2184696791468346e-07,-0.2353596,-0.5883989999999987,10.97364135,8.999999999999999e-08,0.0,0.0,0.0,8.999999999999999e-08,0.0,0.0,0.0,8.999999999999999e-08
1737285445.1268833,12719,1737285445,124986112,base_link,0.015378500257891838,-0.004238081413859465,-0.5831416207132455,-0.8122138822918978,1.0,0.0,0.0,0.0,1.0,0.0,0.0,0.0,1.0,0.0017124612350016832,0.0024331444874405887,0.01980331540107727,1.2184696791468346e-07,0.0,0.0,0.0,1.2184696791468346e-07,0.0,0.0,0.0,1.2184696791468346e-07,0.00980665,-0.06864654999999872,10.38524235,8.999999999999999e-08,0.0,0.0,0.0,8.999999999999999e-08,0.0,0.0,0.0,8.999999999999999e-08
1737285445.226089,12720,1737285445,223982528,base_link,0.014983707795469184,-9.069246658082493e-05,-0.5828609219616403,-0.8124337671008038,1.0,0.0,0.0,0.0,1.0,0.0,0.0,0.0,1.0,-0.19097933173179626,-0.0030268328264355694,-0.029052289202809334,1.2184696791468346e-07,0.0,0.0,0.0,1.2184696791468346e-07,0.0,0.0,0.0,1.2184696791468346e-07,-0.3530394,-0.09806649999999872,10.4342756,8.999999999999999e-08,0.0,0.0,0.0,8.999999999999999e-08,0.0,0.0,0.0,8.999999999999999e-08
1737285445.326829,12721,1737285445,324977152,base_link,0.01884546730217128,-0.0006516563303053625,-0.5812449295434537,-0.8135101447346651,1.0,0.0,0.0,0.0,1.0,0.0,0.0,0.0,1.0,-0.11757733672857285,0.3134397864341736,-0.03587779775261883,1.2184696791468346e-07,0.0,0.0,0.0,1.2184696791468346e-07,0.0,0.0,0.0,1.2184696791468346e-07,0.1765197,-0.3922659999999989,9.0809579,8.999999999999999e-08,0.0,0.0,0.0,8.999999999999999e-08,0.0,0.0,0.0,8.999999999999999e-08
1737285445.4250116,12722,1737285445,423965376,base_link,0.018616733679564554,-0.0004899956138146095,-0.5793640072449346,-0.8148561371435414,1.0,0.0,0.0,0.0,1.0,0.0,0.0,0.0,1.0,0.324473112821579,-0.21462878584861755,0.05391750112175944,1.2184696791468346e-07,0.0,0.0,0.0,1.2184696791468346e-07,0.0,0.0,0.0,1.2184696791468346e-07,-0.0196133,-0.18632634999999875,10.34601575,8.999999999999999e-08,0.0,0.0,0.0,8.999999999999999e-08,0.0,0.0,0.0,8.999999999999999e-08
1737285445.52701,12723,1737285445,525957952,base_link,0.01668981666250438,-0.0017069895256843677,-0.5773204818430184,-0.8163452685298519,1.0,0.0,0.0,0.0,1.0,0.0,0.0,0.0,1.0,0.24421241879463196,-0.2894120514392853,-0.09436336904764171,1.2184696791468346e-07,0.0,0.0,0.0,1.2184696791468346e-07,0.0,0.0,0.0,1.2184696791468346e-07,0.0588399,-0.7256920999999988,9.1201845,8.999999999999999e-08,0.0,0.0,0.0,8.999999999999999e-08,0.0,0.0,0.0,8.999999999999999e-08
1737285445.6260161,12724,1737285445,623954112,base_link,0.015380072979008523,-0.00034736962728279216,-0.5750523190711755,-0.8179719818064461,1.0,0.0,0.0,0.0,1.0,0.0,0.0,0.0,1.0,-0.06812513619661331,0.08828607946634291,-0.07960940152406694,1.2184696791468346e-07,0.0,0.0,0.0,1.2184696791468346e-07,0.0,0.0,0.0,1.2184696791468346e-07,-0.04903325,-0.17651969999999886,9.28689755,8.999999999999999e-08,0.0,0.0,0.0,8.999999999999999e-08,0.0,0.0,0.0,8.999999999999999e-08
1737285445.7280273,12725,1737285445,725953344,base_link,0.013803769596629824,-0.00013814422062489453,-0.5721102260621564,-0.8200605624563383,1.0,0.0,0.0,0.0,1.0,0.0,0.0,0.0,1.0,-0.28210562467575073,0.09834870696067809,-0.08223097771406175,1.2184696791468346e-07,0.0,0.0,0.0,1.2184696791468346e-07,0.0,0.0,0.0,1.2184696791468346e-07,-0.1569064,-0.40207264999999875,10.28717585,8.999999999999999e-08,0.0,0.0,0.0,8.999999999999999e-08,0.0,0.0,0.0,8.999999999999999e-08
1737285445.8259025,12726,1737285445,824948992,base_link,0.009913284753823035,0.000756380208722288,-0.5698502718340965,-0.8216883973654343,1.0,0.0,0.0,0.0,1.0,0.0,0.0,0.0,1.0,-0.09112268686294556,0.3246011734008789,0.0022152021992951233,1.2184696791468346e-07,0.0,0.0,0.0,1.2184696791468346e-07,0.0,0.0,0.0,1.2184696791468346e-07,-0.1176798,-0.49033249999999867,10.7088618,8.999999999999999e-08,0.0,0.0,0.0,8.999999999999999e-08,0.0,0.0,0.0,8.999999999999999e-08
1737285445.9260056,12727,1737285445,923948992,base_link,0.007438832058565254,0.001482833038801545,-0.5702083176537706,-0.8214651176174435,1.0,0.0,0.0,0.0,1.0,0.0,0.0,0.0,1.0,-0.07255014032125473,0.18900714814662933,-0.06904859840869906,1.2184696791468346e-07,0.0,0.0,0.0,1.2184696791468346e-07,0.0,0.0,0.0,1.2184696791468346e-07,-0.04903325,-0.3334260999999986,11.38552065,8.999999999999999e-08,0.0,0.0,0.0,8.999999999999999e-08,0.0,0.0,0.0,8.999999999999999e-08
1737285446.026857,12728,1737285446,25938752,base_link,0.00846284252151736,0.0018263634117456037,-0.5706584360957838,-0.8211418842111625,1.0,0.0,0.0,0.0,1.0,0.0,0.0,0.0,1.0,-0.03919510543346405,0.14182160794734958,0.2050763666629791,1.2184696791468346e-07,0.0,0.0,0.0,1.2184696791468346e-07,0.0,0.0,0.0,1.2184696791468346e-07,0.2157463,-0.09806649999999882,9.610517,8.999999999999999e-08,0.0,0.0,0.0,8.999999999999999e-08,0.0,0.0,0.0,8.999999999999999e-08
1737285446.1259632,12729,1737285446,123927744,base_link,0.009425426656557196,0.0029058328614970986,-0.5703496509098185,-0.8213427988207914,1.0,0.0,0.0,0.0,1.0,0.0,0.0,0.0,1.0,0.05716077983379364,-0.06935587525367737,0.017862722277641303,1.2184696791468346e-07,0.0,0.0,0.0,1.2184696791468346e-07,0.0,0.0,0.0,1.2184696791468346e-07,-0.00980665,-0.7256920999999987,10.0420096,8.999999999999999e-08,0.0,0.0,0.0,8.999999999999999e-08,0.0,0.0,0.0,8.999999999999999e-08
1737285446.22788,12730,1737285446,225924160,base_link,0.011743178237654793,0.0008183215519427005,-0.5721733784189136,-0.8200482017195104,1.0,0.0,0.0,0.0,1.0,0.0,0.0,0.0,1.0,0.2893991470336914,-0.09006248414516446,0.20788328349590302,1.2184696791468346e-07,0.0,0.0,0.0,1.2184696791468346e-07,0.0,0.0,0.0,1.2184696791468346e-07,0.0784532,-0.1569063999999989,9.0613446,8.999999999999999e-08,0.0,0.0,0.0,8.999999999999999e-08,0.0,0.0,0.0,8.999999999999999e-08
1737285446.325867,12731,1737285446,324917760,base_link,0.01223178286244127,0.00017601983422920993,-0.5736699848537647,-0.8189951776310441,1.0,0.0,0.0,0.0,1.0,0.0,0.0,0.0,1.0,0.1297881007194519,-0.06591787189245223,0.1020590364933014,1.2184696791468346e-07,0.0,0.0,0.0,1.2184696791468346e-07,0.0,0.0,0.0,1.2184696791468346e-07,-0.1569064,-0.5393657499999989,9.40457735,8.999999999999999e-08,0.0,0.0,0.0,8.999999999999999e-08,0.0,0.0,0.0,8.999999999999999e-08
1737285446.4282014,12732,1737285446,425911616,base_link,0.012949843466050827,0.000696254210536857,-0.5754903838239391,-0.8177057141236416,1.0,0.0,0.0,0.0,1.0,0.0,0.0,0.0,1.0,0.13751912117004395,-0.3693249821662903,0.0165234431624413,1.2184696791468346e-07,0.0,0.0,0.0,1.2184696791468346e-07,0.0,0.0,0.0,1.2184696791468346e-07,-0.08825985,-0.08825984999999885,9.3555441,8.999999999999999e-08,0.0,0.0,0.0,8.999999999999999e-08,0.0,0.0,0.0,8.999999999999999e-08
1737285446.5260315,12733,1737285446,524904960,base_link,0.011953544253131674,0.0007182115327108775,-0.5760112112760645,-0.8173540734811712,1.0,0.0,0.0,0.0,1.0,0.0,0.0,0.0,1.0,0.05372617021203041,0.09438224881887439,0.18815641105175018,1.2184696791468346e-07,0.0,0.0,0.0,1.2184696791468346e-07,0.0,0.0,0.0,1.2184696791468346e-07,-0.12748645,-0.29419949999999895,8.7671451,8.999999999999999e-08,0.0,0.0,0.0,8.999999999999999e-08,0.0,0.0,0.0,8.999999999999999e-08
1737285446.6269703,12734,1737285446,624901888,base_link,0.012043875781253491,0.0009575743704041638,-0.577151310070768,-0.8165478512561815,1.0,0.0,0.0,0.0,1.0,0.0,0.0,0.0,1.0,0.288308322429657,-0.367613285779953,-0.08153679221868511,1.2184696791468346e-07,0.0,0.0,0.0,1.2184696791468346e-07,0.0,0.0,0.0,1.2184696791468346e-07,-0.18632635,-0.49033249999999884,9.87529655,8.999999999999999e-08,0.0,0.0,0.0,8.999999999999999e-08,0.0,0.0,0.0,8.999999999999999e-08
1737285446.7260132,12735,1737285446,723896256,base_link,0.015149279469381624,0.0004046216331298245,-0.5793585824209189,-0.8149318797225422,1.0,0.0,0.0,0.0,1.0,0.0,0.0,0.0,1.0,-0.14213508367538452,0.03145406395196916,0.11815270036458969,1.2184696791468346e-07,0.0,0.0,0.0,1.2184696791468346e-07,0.0,0.0,0.0,1.2184696791468346e-07,-0.26477955,0.37265270000000106,8.4925589,8.999999999999999e-08,0.0,0.0,0.0,8.999999999999999e-08,0.0,0.0,0.0,8.999999999999999e-08
1737285446.8272014,12736,1737285446,824892672,base_link,0.015738874142280944,0.002497486925844351,-0.5792276324099133,-0.8150100614425536,1.0,0.0,0.0,0.0,1.0,0.0,0.0,0.0,1.0,0.18196184933185577,-0.25242483615875244,0.033925771713256864,1.2184696791468346e-07,0.0,0.0,0.0,1.2184696791468346e-07,0.0,0.0,0.0,1.2184696791468346e-07,0.1372931,-0.44129924999999887,9.2967042,8.999999999999999e-08,0.0,0.0,0.0,8.999999999999999e-08,0.0,0.0,0.0,8.999999999999999e-08
1737285446.9266968,12737,1737285446,923886784,base_link,0.0196461591391204,0.0017600580783505735,-0.5808260266759087,-0.8137887056002421,1.0,0.0,0.0,0.0,1.0,0.0,0.0,0.0,1.0,-0.27105170488357544,0.1490761637687683,0.08238764107227324,1.2184696791468346e-07,0.0,0.0,0.0,1.2184696791468346e-07,0.0,0.0,0.0,1.2184696791468346e-07,-0.32361945000000003,0.13729310000000108,8.7671451,8.999999999999999e-08,0.0,0.0,0.0,8.999999999999999e-08,0.0,0.0,0.0,8.999999999999999e-08
1737285447.0270727,12738,1737285447,25881408,base_link,0.01694174991623353,0.0016064926956386259,-0.5795757035882919,-0.8147406950073937,1.0,0.0,0.0,0.0,1.0,0.0,0.0,0.0,1.0,-0.23498950898647308,0.34776759147644043,0.058814067393541294,1.2184696791468346e-07,0.0,0.0,0.0,1.2184696791468346e-07,0.0,0.0,0.0,1.2184696791468346e-07,-0.26477955,-0.7747253499999989,9.639936950000001,8.999999999999999e-08,0.0,0.0,0.0,8.999999999999999e-08,0.0,0.0,0.0,8.999999999999999e-08
1737285447.1262658,12739,1737285447,124881408,base_link,0.01856601934730245,0.0007492264938810535,-0.5794340166514095,-0.814807315831461,1.0,0.0,0.0,0.0,1.0,0.0,0.0,0.0,1.0,-0.3234211206436157,0.1376088708639145,-0.06611496210098268,1.2184696791468346e-07,0.0,0.0,0.0,1.2184696791468346e-07,0.0,0.0,0.0,1.2184696791468346e-07,0.10787315,-0.42168594999999875,10.4735022,8.999999999999999e-08,0.0,0.0,0.0,8.999999999999999e-08,0.0,0.0,0.0,8.999999999999999e-08
1737285447.2251482,12740,1737285447,223876544,base_link,0.016691332985849128,-0.0004487074806016719,-0.5783188531312377,-0.8156399341484712,1.0,0.0,0.0,0.0,1.0,0.0,0.0,0.0,1.0,0.02097300812602043,0.09519136697053909,0.016928190365433683,1.2184696791468346e-07,0.0,0.0,0.0,1.2184696791468346e-07,0.0,0.0,0.0,1.2184696791468346e-07,-0.14709975,-0.44129924999999876,10.3362091,8.999999999999999e-08,0.0,0.0,0.0,8.999999999999999e-08,0.0,0.0,0.0,8.999999999999999e-08
1737285447.3270142,12741,1737285447,325872192,base_link,0.016441903162088132,0.0013198622871393917,-0.5755003963030271,-0.817635136010562,1.0,0.0,0.0,0.0,1.0,0.0,0.0,0.0,1.0,0.05167912691831589,-0.18101835250854495,-0.24330121278762815,1.2184696791468346e-07,0.0,0.0,0.0,1.2184696791468346e-07,0.0,0.0,0.0,1.2184696791468346e-07,-0.10787315,-0.2843928499999987,10.50292215,8.999999999999999e-08,0.0,0.0,0.0,8.999999999999999e-08,0.0,0.0,0.0,8.999999999999999e-08
1737285447.4260569,12742,1737285447,424866560,base_link,0.01382775461503513,0.0023569008922045332,-0.573642863213603,-0.8189854111671284,1.0,0.0,0.0,0.0,1.0,0.0,0.0,0.0,1.0,0.16748058795928955,-0.21167650818824768,0.06112830340862277,1.2184696791468346e-07,0.0,0.0,0.0,1.2184696791468346e-07,0.0,0.0,0.0,1.2184696791468346e-07,-0.06864655,0.26477955000000114,9.40457735,8.999999999999999e-08,0.0,0.0,0.0,8.999999999999999e-08,0.0,0.0,0.0,8.999999999999999e-08
1737285447.5261555,12743,1737285447,523861952,base_link,0.012497920830402921,0.003648200101644027,-0.5720442824655958,-0.8201194007639113,1.0,0.0,0.0,0.0,1.0,0.0,0.0,0.0,1.0,0.31893494725227356,-0.19166933000087738,-0.03301168233156202,1.2184696791468346e-07,0.0,0.0,0.0,1.2184696791468346e-07,0.0,0.0,0.0,1.2184696791468346e-07,0.20593965,-0.18632634999999878,9.9047165,8.999999999999999e-08,0.0,0.0,0.0,8.999999999999999e-08,0.0,0.0,0.0,8.999999999999999e-08
1737285447.6252522,12744,1737285447,623858880,base_link,0.014194414294341923,0.004106906437342497,-0.5724580168742849,-0.8198008726750152,1.0,0.0,0.0,0.0,1.0,0.0,0.0,0.0,1.0,0.1260143369436264,-0.30723628401756287,-0.17560565471649167,1.2184696791468346e-07,0.0,0.0,0.0,1.2184696791468346e-07,0.0,0.0,0.0,1.2184696791468346e-07,-0.20593965,-0.2157462999999988,9.77723005,8.999999999999999e-08,0.0,0.0,0.0,8.999999999999999e-08,0.0,0.0,0.0,8.999999999999999e-08
1737285447.7262795,12745,1737285447,724852224,base_link,0.014822394654107377,0.0034499591834165643,-0.5728580407784519,-0.8195133064897873,1.0,0.0,0.0,0.0,1.0,0.0,0.0,0.0,1.0,0.020198944956064224,-0.1224294602870941,0.09912685304880144,1.2184696791468346e-07,0.0,0.0,0.0,1.2184696791468346e-07,0.0,0.0,0.0,1.2184696791468346e-07,-0.14709975,0.3530394000000011,8.83579165,8.999999999999999e-08,0.0,0.0,0.0,8.999999999999999e-08,0.0,0.0,0.0,8.999999999999999e-08
1737285447.8252778,12746,1737285447,823847872,base_link,0.013714133359121862,0.004268761549902959,-0.5705068539842819,-0.8211672361815193,1.0,0.0,0.0,0.0,1.0,0.0,0.0,0.0,1.0,-0.10558799654245377,0.06272388249635695,-0.10273870080709459,1.2184696791468346e-07,0.0,0.0,0.0,1.2184696791468346e-07,0.0,0.0,0.0,1.2184696791468346e-07,-0.1176798,-0.47071919999999884,9.5712904,8.999999999999999e-08,0.0,0.0,0.0,8.999999999999999e-08,0.0,0.0,0.0,8.999999999999999e-08
1737285447.9274318,12747,1737285447,925839424,base_link,0.010395680780768734,0.0039059221377588616,-0.5704457165080543,-0.8212602255746778,1.0,0.0,0.0,0.0,1.0,0.0,0.0,0.0,1.0,0.0672067329287529,0.004473199136555213,0.14798668026924133,1.2184696791468346e-07,0.0,0.0,0.0,1.2184696791468346e-07,0.0,0.0,0.0,1.2184696791468346e-07,-0.1176798,1.1829537294865517e-15,9.65955025,8.999999999999999e-08,0.0,0.0,0.0,8.999999999999999e-08,0.0,0.0,0.0,8.999999999999999e-08
1737285448.0262122,12748,1737285448,24832512,base_link,0.008439298890765449,0.004224626382306849,-0.570790812111241,-0.8210412776319786,1.0,0.0,0.0,0.0,1.0,0.0,0.0,0.0,1.0,0.057262931019067764,-0.14999166131019595,-0.12323888391256331,1.2184696791468346e-07,0.0,0.0,0.0,1.2184696791468346e-07,0.0,0.0,0.0,1.2184696791468346e-07,-0.30400615,-0.5491723999999988,9.8654899,8.999999999999999e-08,0.0,0.0,0.0,8.999999999999999e-08,0.0,0.0,0.0,8.999999999999999e-08
1737285448.1272655,12749,1737285448,125827648,base_link,0.010393602417047648,0.0008571433285982586,-0.572095166076531,-0.8201209418652693,1.0,0.0,0.0,0.0,1.0,0.0,0.0,0.0,1.0,-0.07795160263776779,0.17052321135997775,0.17657084763050077,1.2184696791468346e-07,0.0,0.0,0.0,1.2184696791468346e-07,0.0,0.0,0.0,1.2184696791468346e-07,0.0392266,0.509945800000001,8.62004535,8.999999999999999e-08,0.0,0.0,0.0,8.999999999999999e-08,0.0,0.0,0.0,8.999999999999999e-08
1737285448.2262518,12750,1737285448,224823040,base_link,0.011546063411650974,-0.0005602362436735285,-0.5724012371705429,-0.8198921869616013,1.0,0.0,0.0,0.0,1.0,0.0,0.0,0.0,1.0,-0.13324923813343048,0.2544284760951996,-0.05329322814941409,1.2184696791468346e-07,0.0,0.0,0.0,1.2184696791468346e-07,0.0,0.0,0.0,1.2184696791468346e-07,-0.2157463,-0.8139519499999988,10.1008495,8.999999999999999e-08,0.0,0.0,0.0,8.999999999999999e-08,0.0,0.0,0.0,8.999999999999999e-08
1737285448.325212,12751,1737285448,323816384,base_link,0.013852056990126696,-0.0006711336306361677,-0.5752944032977235,-0.8178288449493014,1.0,0.0,0.0,0.0,1.0,0.0,0.0,0.0,1.0,-0.4386175870895386,0.11510334163904191,0.07391793280839919,1.2184696791468346e-07,0.0,0.0,0.0,1.2184696791468346e-07,0.0,0.0,0.0,1.2184696791468346e-07,-0.0392266,-0.02941994999999871,10.5127288,8.999999999999999e-08,0.0,0.0,0.0,8.999999999999999e-08,0.0,0.0,0.0,8.999999999999999e-08
1737285448.4262037,12752,1737285448,423812800,base_link,0.011141336889675465,-0.0021177345754886173,-0.5785115263783547,-0.8155953651535576,1.0,0.0,0.0,0.0,1.0,0.0,0.0,0.0,1.0,0.022724797949194908,0.18975205719470978,0.1003562584519386,1.2184696791468346e-07,0.0,0.0,0.0,1.2184696791468346e-07,0.0,0.0,0.0,1.2184696791468346e-07,-0.38245935,-0.6080122999999987,10.62060195,8.999999999999999e-08,0.0,0.0,0.0,8.999999999999999e-08,0.0,0.0,0.0,8.999999999999999e-08
1737285448.5262532,12753,1737285448,524809216,base_link,0.011280961501347643,-0.0029616371300964593,-0.5830001714527808,-0.8123883115229703,1.0,0.0,0.0,0.0,1.0,0.0,0.0,0.0,1.0,-0.4183138310909271,0.13119155168533325,0.02545268088579176,1.2184696791468346e-07,0.0,0.0,0.0,1.2184696791468346e-07,0.0,0.0,0.0,1.2184696791468346e-07,0.0196133,-0.4118792999999986,11.16977435,8.999999999999999e-08,0.0,0.0,0.0,8.999999999999999e-08,0.0,0.0,0.0,8.999999999999999e-08
1737285448.6253572,12754,1737285448,623803584,base_link,0.011576399486395326,-0.0037157599174190226,-0.5837813116263955,-0.8118199063209358,1.0,0.0,0.0,0.0,1.0,0.0,0.0,0.0,1.0,0.1286797970533371,-0.08205946534872056,-0.0623517520725727,1.2184696791468346e-07,0.0,0.0,0.0,1.2184696791468346e-07,0.0,0.0,0.0,1.2184696791468346e-07,-0.1569064,-0.3922659999999987,10.5127288,8.999999999999999e-08,0.0,0.0,0.0,8.999999999999999e-08,0.0,0.0,0.0,8.999999999999999e-08
1737285448.7265532,12755,1737285448,724801792,base_link,0.014674230330912955,-0.00266702641803755,-0.5827240928926591,-0.8125331903969882,1.0,0.0,0.0,0.0,1.0,0.0,0.0,0.0,1.0,-0.11262805014848709,0.25464552640914917,0.1350407302379608,1.2184696791468346e-07,0.0,0.0,0.0,1.2184696791468346e-07,0.0,0.0,0.0,1.2184696791468346e-07,-0.14709975,0.05883990000000119,9.6693569,8.999999999999999e-08,0.0,0.0,0.0,8.999999999999999e-08,0.0,0.0,0.0,8.999999999999999e-08
1737285448.8253832,12756,1737285448,823798464,base_link,0.017656823986120024,-0.0017794433658013143,-0.5783825984715979,-0.8155725840986034,1.0,0.0,0.0,0.0,1.0,0.0,0.0,0.0,1.0,0.1194765493273735,-0.14356425404548648,-0.14865727722644803,1.2184696791468346e-07,0.0,0.0,0.0,1.2184696791468346e-07,0.0,0.0,0.0,1.2184696791468346e-07,-0.1176798,-0.5099457999999988,10.395049,8.999999999999999e-08,0.0,0.0,0.0,8.999999999999999e-08,0.0,0.0,0.0,8.999999999999999e-08
1737285448.9285288,12757,1737285448,925796672,base_link,0.017781151689649125,-0.0013381758034230798,-0.5729593965941046,-0.8193897545030864,1.0,0.0,0.0,0.0,1.0,0.0,0.0,0.0,1.0,0.4337138235569,-0.4047633111476898,-0.17664729058742518,1.2184696791468346e-07,0.0,0.0,0.0,1.2184696791468346e-07,0.0,0.0,0.0,1.2184696791468346e-07,-0.3334261,-0.029419949999998894,9.03192465,8.999999999999999e-08,0.0,0.0,0.0,8.999999999999999e-08,0.0,0.0,0.0,8.999999999999999e-08
1737285449.0265079,12758,1737285449,24790016,base_link,0.012428733765579734,0.0030422083477439055,-0.5709892127932124,-0.8208578381298074,1.0,0.0,0.0,0.0,1.0,0.0,0.0,0.0,1.0,0.48229914903640747,-0.3968038260936737,0.03763481229543691,1.2184696791468346e-07,0.0,0.0,0.0,1.2184696791468346e-07,0.0,0.0,0.0,1.2184696791468346e-07,-0.2353596,-0.2745861999999989,9.22805765,8.999999999999999e-08,0.0,0.0,0.0,8.999999999999999e-08,0.0,0.0,0.0,8.999999999999999e-08
1737285449.126332,12759,1737285449,124785664,base_link,0.006448462668028242,0.0076195610169672665,-0.5729519580986089,-0.8195281650621273,1.0,0.0,0.0,0.0,1.0,0.0,0.0,0.0,1.0,0.14568322896957397,-0.511337399482727,-0.13413390517234797,1.2184696791468346e-07,0.0,0.0,0.0,1.2184696791468346e-07,0.0,0.0,0.0,1.2184696791468346e-07,-0.18632635,-0.17651969999999886,9.52225715,8.999999999999999e-08,0.0,0.0,0.0,8.999999999999999e-08,0.0,0.0,0.0,8.999999999999999e-08
1737285449.2273808,12760,1737285449,225782848,base_link,0.002198316103075811,0.013120542230294026,-0.5735994027634086,-0.8190279262194634,1.0,0.0,0.0,0.0,1.0,0.0,0.0,0.0,1.0,0.17340399324893951,-0.21011516451835635,-0.13645385205745694,1.2184696791468346e-07,0.0,0.0,0.0,1.2184696791468346e-07,0.0,0.0,0.0,1.2184696791468346e-07,-0.4118793,0.4118793000000011,8.8455983,8.999999999999999e-08,0.0,0.0,0.0,8.999999999999999e-08,0.0,0.0,0.0,8.999999999999999e-08
1737285449.326367,12761,1737285449,324776960,base_link,0.0003695210462238966,0.013751889034149326,-0.5736535155199921,-0.8189825353044735,1.0,0.0,0.0,0.0,1.0,0.0,0.0,0.0,1.0,0.03949606418609619,0.027603778988122954,0.1023862287402153,1.2184696791468346e-07,0.0,0.0,0.0,1.2184696791468346e-07,0.0,0.0,0.0,1.2184696791468346e-07,0.00980665,0.25497290000000117,9.4928372,8.999999999999999e-08,0.0,0.0,0.0,8.999999999999999e-08,0.0,0.0,0.0,8.999999999999999e-08
1737285449.4262977,12762,1737285449,423771840,base_link,0.003101110827417698,0.012387485827143373,-0.5722698093104399,-0.8199659740857,1.0,0.0,0.0,0.0,1.0,0.0,0.0,0.0,1.0,-0.19961100816726685,0.14050734043121338,-0.07666572928428651,1.2184696791468346e-07,0.0,0.0,0.0,1.2184696791468346e-07,0.0,0.0,0.0,1.2184696791468346e-07,0.10787315,-0.5785923499999988,10.14988275,8.999999999999999e-08,0.0,0.0,0.0,8.999999999999999e-08,0.0,0.0,0.0,8.999999999999999e-08
1737285449.525368,12763,1737285449,523768512,base_link,0.004748092165327718,0.00538253812881175,-0.5702655912041766,-0.8214290227357641,1.0,0.0,0.0,0.0,1.0,0.0,0.0,0.0,1.0,0.1565723568201065,0.23656155169010162,-0.008603089489042788,1.2184696791468346e-07,0.0,0.0,0.0,1.2184696791468346e-07,0.0,0.0,0.0,1.2184696791468346e-07,-0.02941995,-0.09806649999999875,10.267562550000001,8.999999999999999e-08,0.0,0.0,0.0,8.999999999999999e-08,0.0,0.0,0.0,8.999999999999999e-08
1737285449.6264706,12764,1737285449,625760832,base_link,0.007872981797198928,0.0004895097127589371,-0.5695257143496187,-0.8219356648986698,1.0,0.0,0.0,0.0,1.0,0.0,0.0,0.0,1.0,0.16145218908786774,0.03662818670272828,0.05558090284466743,1.2184696791468346e-07,0.0,0.0,0.0,1.2184696791468346e-07,0.0,0.0,0.0,1.2184696791468346e-07,0.02941995,-0.019613299999998786,9.9243298,8.999999999999999e-08,0.0,0.0,0.0,8.999999999999999e-08,0.0,0.0,0.0,8.999999999999999e-08
1737285449.7273655,12765,1737285449,725754432,base_link,0.004865533664043551,-8.502151906200003e-05,-0.5694418037073312,-0.8220172452838485,1.0,0.0,0.0,0.0,1.0,0.0,0.0,0.0,1.0,0.16440698504447937,-0.31160593032836914,-0.07072525471448894,1.2184696791468346e-07,0.0,0.0,0.0,1.2184696791468346e-07,0.0,0.0,0.0,1.2184696791468346e-07,-0.12748645,-0.34323274999999875,10.4538889,8.999999999999999e-08,0.0,0.0,0.0,8.999999999999999e-08,0.0,0.0,0.0,8.999999999999999e-08
1737285449.8334253,12766,1737285449,831749056,base_link,0.0030684299830986725,0.007975049634146195,-0.5701279655749022,-0.8215114644301653,1.0,0.0,0.0,0.0,1.0,0.0,0.0,0.0,1.0,-0.12657658755779266,-0.16995406150817874,-0.17366994917392728,1.2184696791468346e-07,0.0,0.0,0.0,1.2184696791468346e-07,0.0,0.0,0.0,1.2184696791468346e-07,-0.20593965,0.5001391500000011,8.93385815,8.999999999999999e-08,0.0,0.0,0.0,8.999999999999999e-08,0.0,0.0,0.0,8.999999999999999e-08
1737285449.9325457,12767,1737285449,930743168,base_link,-0.006656789198768642,0.017998776612801907,-0.5716405544512364,-0.8202797130885836,1.0,0.0,0.0,0.0,1.0,0.0,0.0,0.0,1.0,0.18421967327594757,-0.4550739824771881,0.1242560893297196,1.2184696791468346e-07,0.0,0.0,0.0,1.2184696791468346e-07,0.0,0.0,0.0,1.2184696791468346e-07,-0.2745862,0.24516625000000125,10.1596894,8.999999999999999e-08,0.0,0.0,0.0,8.999999999999999e-08,0.0,0.0,0.0,8.999999999999999e-08
1737285450.0284638,12768,1737285450,26736256,base_link,-0.008689241197974724,0.024872480939735583,-0.572422762964008,-0.8195352568498545,1.0,0.0,0.0,0.0,1.0,0.0,0.0,0.0,1.0,-0.14344294369220734,0.2435705214738846,0.13443200290203092,1.2184696791468346e-07,0.0,0.0,0.0,1.2184696791468346e-07,0.0,0.0,0.0,1.2184696791468346e-07,0.2353596,-0.16671304999999878,9.93413645,8.999999999999999e-08,0.0,0.0,0.0,8.999999999999999e-08,0.0,0.0,0.0,8.999999999999999e-08
1737285450.1254277,12769,1737285450,124728832,base_link,-0.009058281352928287,0.027189112354489665,-0.5717548031483457,-0.8199238652369517,1.0,0.0,0.0,0.0,1.0,0.0,0.0,0.0,1.0,0.10052012652158737,-0.3587532043457031,-0.14038595557212824,1.2184696791468346e-07,0.0,0.0,0.0,1.2184696791468346e-07,0.0,0.0,0.0,1.2184696791468346e-07,0.2353596,-0.5982056499999987,10.5715687,8.999999999999999e-08,0.0,0.0,0.0,8.999999999999999e-08,0.0,0.0,0.0,8.999999999999999e-08
1737285450.22523,12770,1737285450,223720640,base_link,-0.0064264869769169826,0.026401410504266847,-0.5720740852442757,-0.8197517348444259,1.0,0.0,0.0,0.0,1.0,0.0,0.0,0.0,1.0,-0.21292449533939362,0.4197614789009094,0.07240592688322062,1.2184696791468346e-07,0.0,0.0,0.0,1.2184696791468346e-07,0.0,0.0,0.0,1.2184696791468346e-07,-0.1372931,0.33342610000000106,8.62004535,8.999999999999999e-08,0.0,0.0,0.0,8.999999999999999e-08,0.0,0.0,0.0,8.999999999999999e-08
1737285450.3272471,12771,1737285450,324714240,base_link,-0.00493904284256503,0.02518016581612955,-0.5732943510749263,-0.8189475881464274,1.0,0.0,0.0,0.0,1.0,0.0,0.0,0.0,1.0,-0.3897865116596222,0.21712112426757812,0.08306679874658582,1.2184696791468346e-07,0.0,0.0,0.0,1.2184696791468346e-07,0.0,0.0,0.0,1.2184696791468346e-07,0.10787315,-0.3628460499999987,11.07170785,8.999999999999999e-08,0.0,0.0,0.0,8.999999999999999e-08,0.0,0.0,0.0,8.999999999999999e-08
1737285450.426283,12772,1737285450,423705280,base_link,-0.004742258337191646,0.024829601598180616,-0.5743488026158403,-0.8182202972330187,1.0,0.0,0.0,0.0,1.0,0.0,0.0,0.0,1.0,0.20997966825962067,-0.01925581693649292,-0.01295734755694866,1.2184696791468346e-07,0.0,0.0,0.0,1.2184696791468346e-07,0.0,0.0,0.0,1.2184696791468346e-07,-0.04903325,0.33342610000000117,9.75761675,8.999999999999999e-08,0.0,0.0,0.0,8.999999999999999e-08,0.0,0.0,0.0,8.999999999999999e-08
1737285450.5281978,12773,1737285450,525699136,base_link,-0.007856332071228619,0.022665827322092928,-0.5773399470591355,-0.816151409879286,1.0,0.0,0.0,0.0,1.0,0.0,0.0,0.0,1.0,0.32967716455459595,-0.15377888083457944,0.16455936431884768,1.2184696791468346e-07,0.0,0.0,0.0,1.2184696791468346e-07,0.0,0.0,0.0,1.2184696791468346e-07,-0.0980665,0.07845320000000124,10.07142955,8.999999999999999e-08,0.0,0.0,0.0,8.999999999999999e-08,0.0,0.0,0.0,8.999999999999999e-08
1737285450.6272447,12774,1737285450,625695040,base_link,-0.009921227525095479,0.022608651678074996,-0.579011192714884,-0.8149456772230789,1.0,0.0,0.0,0.0,1.0,0.0,0.0,0.0,1.0,-0.03379613533616066,-0.015999924391508106,-0.0222987700253725,1.2184696791468346e-07,0.0,0.0,0.0,1.2184696791468346e-07,0.0,0.0,0.0,1.2184696791468346e-07,-0.12748645,-0.16671304999999878,9.9831697,8.999999999999999e-08,0.0,0.0,0.0,8.999999999999999e-08,0.0,0.0,0.0,8.999999999999999e-08
1737285450.7262235,12775,1737285450,724692224,base_link,-0.009877783232231272,0.020525305075305176,-0.5772924622305993,-0.8162196728220379,1.0,0.0,0.0,0.0,1.0,0.0,0.0,0.0,1.0,0.2994312345981598,-0.24005411565303805,-0.15386408567428586,1.2184696791468346e-07,0.0,0.0,0.0,1.2184696791468346e-07,0.0,0.0,0.0,1.2184696791468346e-07,0.2745862,-0.10787314999999886,9.20844435,8.999999999999999e-08,0.0,0.0,0.0,8.999999999999999e-08,0.0,0.0,0.0,8.999999999999999e-08
1737285450.826321,12776,1737285450,823686592,base_link,-0.007690522289942108,0.01766397518592513,-0.5772617201260235,-0.8163318849124316,1.0,0.0,0.0,0.0,1.0,0.0,0.0,0.0,1.0,0.09765129536390305,0.140061154961586,-0.0782851427793503,1.2184696791468346e-07,0.0,0.0,0.0,1.2184696791468346e-07,0.0,0.0,0.0,1.2184696791468346e-07,-0.196133,0.2745862000000011,9.12999115,8.999999999999999e-08,0.0,0.0,0.0,8.999999999999999e-08,0.0,0.0,0.0,8.999999999999999e-08
1737285450.9273672,12777,1737285450,924681984,base_link,-0.004355780013499039,0.010325318391753944,-0.5767221116669021,-0.816863526481047,1.0,0.0,0.0,0.0,1.0,0.0,0.0,0.0,1.0,0.2013344019651413,0.235580176115036,-0.00012414844240996145,1.2184696791468346e-07,0.0,0.0,0.0,1.2184696791468346e-07,0.0,0.0,0.0,1.2184696791468346e-07,-0.1372931,-0.3040061499999987,10.6892485,8.999999999999999e-08,0.0,0.0,0.0,8.999999999999999e-08,0.0,0.0,0.0,8.999999999999999e-08
1737285451.026647,12778,1737285451,23680192,base_link,0.0027018836893071166,0.0006046128559067991,-0.5782733241950425,-0.8158384011507667,1.0,0.0,0.0,0.0,1.0,0.0,0.0,0.0,1.0,-0.08555391430854797,0.10050128400325777,0.09989257901906966,1.2184696791468346e-07,0.0,0.0,0.0,1.2184696791468346e-07,0.0,0.0,0.0,1.2184696791468346e-07,0.3530394,-0.3628460499999986,11.2972608,8.999999999999999e-08,0.0,0.0,0.0,8.999999999999999e-08,0.0,0.0,0.0,8.999999999999999e-08
1737285451.124639,12779,1737285451,123673280,base_link,0.01075685806461594,-0.0032790628440247547,-0.5786325908050177,-0.8155107985855956,1.0,0.0,0.0,0.0,1.0,0.0,0.0,0.0,1.0,0.011523144319653511,-0.16499005258083346,-0.19974154233932492,1.2184696791468346e-07,0.0,0.0,0.0,1.2184696791468346e-07,0.0,0.0,0.0,1.2184696791468346e-07,0.0,-0.22555294999999886,9.463417250000001,8.999999999999999e-08,0.0,0.0,0.0,8.999999999999999e-08,0.0,0.0,0.0,8.999999999999999e-08
1737285451.2265503,12780,1737285451,224669440,base_link,0.011961318837093095,-0.0037537744442740556,-0.5787207152338051,-0.8154294388776826,1.0,0.0,0.0,0.0,1.0,0.0,0.0,0.0,1.0,-0.18595170974731445,0.12798234820365906,0.05534703284502028,1.2184696791468346e-07,0.0,0.0,0.0,1.2184696791468346e-07,0.0,0.0,0.0,1.2184696791468346e-07,-0.34323275,0.25497290000000117,9.3359308,8.999999999999999e-08,0.0,0.0,0.0,8.999999999999999e-08,0.0,0.0,0.0,8.999999999999999e-08
1737285451.325717,12781,1737285451,323661504,base_link,0.012764337868374843,-0.0035126568165244117,-0.577672995156947,-0.8161609177039004,1.0,0.0,0.0,0.0,1.0,0.0,0.0,0.0,1.0,0.07476814836263657,0.00846323557198048,0.0341256819665432,1.2184696791468346e-07,0.0,0.0,0.0,1.2184696791468346e-07,0.0,0.0,0.0,1.2184696791468346e-07,0.24516625,-0.49033249999999884,9.87529655,8.999999999999999e-08,0.0,0.0,0.0,8.999999999999999e-08,0.0,0.0,0.0,8.999999999999999e-08
1737285451.4258375,12782,1737285451,423655872,base_link,0.01145059049461815,-0.0005225451144557353,-0.5756425815523629,-0.8176210792461621,1.0,0.0,0.0,0.0,1.0,0.0,0.0,0.0,1.0,-0.05564681813120842,0.040211454033851596,-0.20742426812648773,1.2184696791468346e-07,0.0,0.0,0.0,1.2184696791468346e-07,0.0,0.0,0.0,1.2184696791468346e-07,0.0,-0.17651969999999892,8.8455983,8.999999999999999e-08,0.0,0.0,0.0,8.999999999999999e-08,0.0,0.0,0.0,8.999999999999999e-08
1737285451.527775,12783,1737285451,525652032,base_link,0.0041648359047147645,0.00743263329789419,-0.5746592876600699,-0.8183484057601427,1.0,0.0,0.0,0.0,1.0,0.0,0.0,0.0,1.0,0.2459692656993866,-0.30732887983322144,0.07580024749040608,1.2184696791468346e-07,0.0,0.0,0.0,1.2184696791468346e-07,0.0,0.0,0.0,1.2184696791468346e-07,-0.28439285000000003,0.23535960000000128,10.4735022,8.999999999999999e-08,0.0,0.0,0.0,8.999999999999999e-08,0.0,0.0,0.0,8.999999999999999e-08
1737285451.6258428,12784,1737285451,624646912,base_link,-0.0018225333143004668,0.01495076355999549,-0.5749150971103991,-0.8180744368062308,1.0,0.0,0.0,0.0,1.0,0.0,0.0,0.0,1.0,0.02850463055074215,-0.18894562125205994,0.01686961948871615,1.2184696791468346e-07,0.0,0.0,0.0,1.2184696791468346e-07,0.0,0.0,0.0,1.2184696791468346e-07,-0.00980665,-0.3726526999999987,9.9635564,8.999999999999999e-08,0.0,0.0,0.0,8.999999999999999e-08,0.0,0.0,0.0,8.999999999999999e-08
1737285451.7257712,12785,1737285451,723662528,base_link,0.0006561705701319299,0.01703968706625333,-0.577819375998924,-0.8159865116685945,1.0,0.0,0.0,0.0,1.0,0.0,0.0,0.0,1.0,-0.2812678813934326,0.259827196598053,0.1641825735569,1.2184696791468346e-07,0.0,0.0,0.0,1.2184696791468346e-07,0.0,0.0,0.0,1.2184696791468346e-07,0.2157463,-0.1765196999999989,9.11037785,8.999999999999999e-08,0.0,0.0,0.0,8.999999999999999e-08,0.0,0.0,0.0,8.999999999999999e-08
1737285451.826708,12786,1737285451,825658176,base_link,0.0012887481187968735,0.018828841090077972,-0.5781931755758645,-0.8156815957155025,1.0,0.0,0.0,0.0,1.0,0.0,0.0,0.0,1.0,-0.024670351296663284,0.01486112922430036,-0.2020569145679474,1.2184696791468346e-07,0.0,0.0,0.0,1.2184696791468346e-07,0.0,0.0,0.0,1.2184696791468346e-07,0.06864655,-1.0787314999999988,10.7284751,8.999999999999999e-08,0.0,0.0,0.0,8.999999999999999e-08,0.0,0.0,0.0,8.999999999999999e-08
1737285451.927984,12787,1737285451,925649984,base_link,-0.0005616888367889682,0.01865780191786138,-0.5786849516345219,-0.8153375360456523,1.0,0.0,0.0,0.0,1.0,0.0,0.0,0.0,1.0,0.1606590449810028,-0.28958073258399963,-0.0727431625127792,1.2184696791468346e-07,0.0,0.0,0.0,1.2184696791468346e-07,0.0,0.0,0.0,1.2184696791468346e-07,0.00980665,0.4216859500000012,9.93413645,8.999999999999999e-08,0.0,0.0,0.0,8.999999999999999e-08,0.0,0.0,0.0,8.999999999999999e-08
1737285452.0258372,12788,1737285452,24646144,base_link,6.764244192754043e-05,0.018669662676756318,-0.5773956929412171,-0.8162509742064434,1.0,0.0,0.0,0.0,1.0,0.0,0.0,0.0,1.0,-0.2621482312679291,0.35677370429039,0.10185050219297405,1.2184696791468346e-07,0.0,0.0,0.0,1.2184696791468346e-07,0.0,0.0,0.0,1.2184696791468346e-07,0.0196133,-0.06864654999999885,9.36535075,8.999999999999999e-08,0.0,0.0,0.0,8.999999999999999e-08,0.0,0.0,0.0,8.999999999999999e-08
1737285452.1249511,12789,1737285452,123646144,base_link,-0.0037659084183838567,0.019104402787473735,-0.573651806223335,-0.8188677823340124,1.0,0.0,0.0,0.0,1.0,0.0,0.0,0.0,1.0,0.3481578826904297,-0.20610575377941132,0.0412818752229214,1.2184696791468346e-07,0.0,0.0,0.0,1.2184696791468346e-07,0.0,0.0,0.0,1.2184696791468346e-07,0.0588399,-0.7158854499999986,10.87557485,8.999999999999999e-08,0.0,0.0,0.0,8.999999999999999e-08,0.0,0.0,0.0,8.999999999999999e-08
1737285452.2257776,12790,1737285452,224646144,base_link,-0.0019654821389626436,0.018790104865593835,-0.5713121138628603,-0.8205154096009724,1.0,0.0,0.0,0.0,1.0,0.0,0.0,0.0,1.0,-0.09329886734485626,-0.2703549563884735,-0.1847485154867172,1.2184696791468346e-07,0.0,0.0,0.0,1.2184696791468346e-07,0.0,0.0,0.0,1.2184696791468346e-07,0.0588399,-0.09806649999999885,9.38496405,8.999999999999999e-08,0.0,0.0,0.0,8.999999999999999e-08,0.0,0.0,0.0,8.999999999999999e-08
1737285452.325552,12791,1737285452,323632064,base_link,0.001631265242190109,0.019711365269690646,-0.5682200701229485,-0.8226388958482246,1.0,0.0,0.0,0.0,1.0,0.0,0.0,0.0,1.0,-0.32005542516708374,0.21596527099609375,0.010248168371617768,1.2184696791468346e-07,0.0,0.0,0.0,1.2184696791468346e-07,0.0,0.0,0.0,1.2184696791468346e-07,0.0588399,0.3530394000000011,9.07115125,8.999999999999999e-08,0.0,0.0,0.0,8.999999999999999e-08,0.0,0.0,0.0,8.999999999999999e-08
1737285452.4274712,12792,1737285452,424629248,base_link,0.002690473864564196,0.02020701918159335,-0.5657319295579026,-0.8243372013956853,1.0,0.0,0.0,0.0,1.0,0.0,0.0,0.0,1.0,-0.2263035625219345,0.3075079917907715,0.1343729346990585,1.2184696791468346e-07,0.0,0.0,0.0,1.2184696791468346e-07,0.0,0.0,0.0,1.2184696791468346e-07,0.3334261,-0.9218250999999987,10.32640245,8.999999999999999e-08,0.0,0.0,0.0,8.999999999999999e-08,0.0,0.0,0.0,8.999999999999999e-08
1737285452.5265956,12793,1737285452,524625152,base_link,0.003970634826493674,0.020682196164178643,-0.5652082798255986,-0.8246793808732512,1.0,0.0,0.0,0.0,1.0,0.0,0.0,0.0,1.0,-0.09091640263795853,0.13208775222301486,0.16042253375053403,1.2184696791468346e-07,0.0,0.0,0.0,1.2184696791468346e-07,0.0,0.0,0.0,1.2184696791468346e-07,0.1569064,-0.5491723999999988,10.42446895,8.999999999999999e-08,0.0,0.0,0.0,8.999999999999999e-08,0.0,0.0,0.0,8.999999999999999e-08
1737285452.6254332,12794,1737285452,623620032,base_link,0.006439903549640372,0.01769021682902109,-0.5649613527472059,-0.8249025722913349,1.0,0.0,0.0,0.0,1.0,0.0,0.0,0.0,1.0,-0.07659619301557541,0.429292768239975,0.14597502350807184,1.2184696791468346e-07,0.0,0.0,0.0,1.2184696791468346e-07,0.0,0.0,0.0,1.2184696791468346e-07,0.2941995,-0.49033249999999884,9.75761675,8.999999999999999e-08,0.0,0.0,0.0,8.999999999999999e-08,0.0,0.0,0.0,8.999999999999999e-08
1737285452.7274983,12795,1737285452,725611328,base_link,0.0073211691723456835,0.01649716069180094,-0.56393437324621,-0.8256223512251004,1.0,0.0,0.0,0.0,1.0,0.0,0.0,0.0,1.0,-0.07515791058540344,0.3705815076828003,0.06094830483198161,1.2184696791468346e-07,0.0,0.0,0.0,1.2184696791468346e-07,0.0,0.0,0.0,1.2184696791468346e-07,0.24516625,-0.6276255999999986,11.1011278,8.999999999999999e-08,0.0,0.0,0.0,8.999999999999999e-08,0.0,0.0,0.0,8.999999999999999e-08
1737285452.8265924,12796,1737285452,824605184,base_link,0.008186053630677726,0.01596357553304482,-0.5616804291062113,-0.8271597477762191,1.0,0.0,0.0,0.0,1.0,0.0,0.0,0.0,1.0,0.09298843890428543,-0.0773604288697243,-0.1727246195077896,1.2184696791468346e-07,0.0,0.0,0.0,1.2184696791468346e-07,0.0,0.0,0.0,1.2184696791468346e-07,-0.00980665,-0.3628460499999987,10.85596155,8.999999999999999e-08,0.0,0.0,0.0,8.999999999999999e-08,0.0,0.0,0.0,8.999999999999999e-08
1737285452.9266722,12797,1737285452,924600320,base_link,0.008890607356634387,0.015175243093565475,-0.5602169346722751,-0.8281591967757658,1.0,0.0,0.0,0.0,1.0,0.0,0.0,0.0,1.0,-0.04857759550213814,-0.153320387005806,-0.15407463908195493,1.2184696791468346e-07,0.0,0.0,0.0,1.2184696791468346e-07,0.0,0.0,0.0,1.2184696791468346e-07,0.0392266,0.3432327500000012,9.56148375,8.999999999999999e-08,0.0,0.0,0.0,8.999999999999999e-08,0.0,0.0,0.0,8.999999999999999e-08
1737285453.0256107,12798,1737285453,23598784,base_link,0.009446528805537554,0.012070838085965015,-0.5592389694279425,-0.8288647857368543,1.0,0.0,0.0,0.0,1.0,0.0,0.0,0.0,1.0,-0.059180647134780884,0.06917109340429306,-0.051363121718168266,1.2184696791468346e-07,0.0,0.0,0.0,1.2184696791468346e-07,0.0,0.0,0.0,1.2184696791468346e-07,0.0,0.40207265000000114,8.825985,8.999999999999999e-08,0.0,0.0,0.0,8.999999999999999e-08,0.0,0.0,0.0,8.999999999999999e-08
1737285453.1256886,12799,1737285453,123593408,base_link,0.004246837261961795,0.010194128615715684,-0.5590843149667765,-0.8290372566255191,1.0,0.0,0.0,0.0,1.0,0.0,0.0,0.0,1.0,0.1637488454580307,0.14852686226367953,0.1611393094062805,1.2184696791468346e-07,0.0,0.0,0.0,1.2184696791468346e-07,0.0,0.0,0.0,1.2184696791468346e-07,0.10787315,-0.8924051499999988,10.6107953,8.999999999999999e-08,0.0,0.0,0.0,8.999999999999999e-08,0.0,0.0,0.0,8.999999999999999e-08
1737285453.2265503,12800,1737285453,224587008,base_link,-0.00032634026129411704,0.009991756373214063,-0.559259339069742,-0.828932476122083,1.0,0.0,0.0,0.0,1.0,0.0,0.0,0.0,1.0,0.20025576651096344,-0.14580565690994263,-0.10721822828054427,1.2184696791468346e-07,0.0,0.0,0.0,1.2184696791468346e-07,0.0,0.0,0.0,1.2184696791468346e-07,0.12748645,-0.37265269999999867,10.9442214,8.999999999999999e-08,0.0,0.0,0.0,8.999999999999999e-08,0.0,0.0,0.0,8.999999999999999e-08
1737285453.3255537,12801,1737285453,323583936,base_link,-0.005538683937359031,0.00941907324267284,-0.561131907416079,-0.8276542675049071,1.0,0.0,0.0,0.0,1.0,0.0,0.0,0.0,1.0,-0.014083524234592915,-0.22611196339130402,-0.04691595956683156,1.2184696791468346e-07,0.0,0.0,0.0,1.2184696791468346e-07,0.0,0.0,0.0,1.2184696791468346e-07,0.0,0.35303940000000117,9.91452315,8.999999999999999e-08,0.0,0.0,0.0,8.999999999999999e-08,0.0,0.0,0.0,8.999999999999999e-08
1737285453.4276092,12802,1737285453,425578560,base_link,-0.008159869588321144,0.008900874679627179,-0.5643913166028119,-0.8254190649007227,1.0,0.0,0.0,0.0,1.0,0.0,0.0,0.0,1.0,-0.038616400212049484,0.15917553007602694,0.3144056797027588,1.2184696791468346e-07,0.0,0.0,0.0,1.2184696791468346e-07,0.0,0.0,0.0,1.2184696791468346e-07,0.0392266,-0.01961329999999889,9.07115125,8.999999999999999e-08,0.0,0.0,0.0,8.999999999999999e-08,0.0,0.0,0.0,8.999999999999999e-08
1737285453.5265849,12803,1737285453,524571648,base_link,-0.009546757786920396,0.009862378616272982,-0.5683707052824998,-0.8226580907524468,1.0,0.0,0.0,0.0,1.0,0.0,0.0,0.0,1.0,-0.22184140980243683,0.2777802348136902,0.19455561041831967,1.2184696791468346e-07,0.0,0.0,0.0,1.2184696791468346e-07,0.0,0.0,0.0,1.2184696791468346e-07,0.0980665,-0.7060787999999988,10.20872265,8.999999999999999e-08,0.0,0.0,0.0,8.999999999999999e-08,0.0,0.0,0.0,8.999999999999999e-08
1737285453.6267734,12804,1737285453,623568064,base_link,-0.01121239302502655,0.010473815932906735,-0.5719226525410214,-0.8201640451354217,1.0,0.0,0.0,0.0,1.0,0.0,0.0,0.0,1.0,0.27934497594833374,-0.2729441225528717,-0.06389103829860684,1.2184696791468346e-07,0.0,0.0,0.0,1.2184696791468346e-07,0.0,0.0,0.0,1.2184696791468346e-07,0.196133,-0.6962721499999988,10.75789505,8.999999999999999e-08,0.0,0.0,0.0,8.999999999999999e-08,0.0,0.0,0.0,8.999999999999999e-08
1737285453.7258592,12805,1737285453,723560384,base_link,-0.010979644573561377,0.009975595016190771,-0.576773547282962,-0.8167693738527051,1.0,0.0,0.0,0.0,1.0,0.0,0.0,0.0,1.0,0.02631452865898609,-0.3075712323188782,-0.07511926442384716,1.2184696791468346e-07,0.0,0.0,0.0,1.2184696791468346e-07,0.0,0.0,0.0,1.2184696791468346e-07,-0.0392266,0.37265270000000117,9.9243298,8.999999999999999e-08,0.0,0.0,0.0,8.999999999999999e-08,0.0,0.0,0.0,8.999999999999999e-08
1737285453.8278108,12806,1737285453,825552448,base_link,-0.0020203093030858516,0.00987312469577868,-0.5815077451203938,-0.8134784460107448,1.0,0.0,0.0,0.0,1.0,0.0,0.0,0.0,1.0,-0.4417405128479004,0.29670792818069464,0.23837696015834806,1.2184696791468346e-07,0.0,0.0,0.0,1.2184696791468346e-07,0.0,0.0,0.0,1.2184696791468346e-07,-0.06864655,-0.00980664999999869,10.69905515,8.999999999999999e-08,0.0,0.0,0.0,8.999999999999999e-08,0.0,0.0,0.0,8.999999999999999e-08
1737285453.9261708,12807,1737285453,924548096,base_link,-0.0004942571119164443,0.01317022593700237,-0.5807869855167251,-0.8139488794224553,1.0,0.0,0.0,0.0,1.0,0.0,0.0,0.0,1.0,-0.30840322375297546,0.10645329952239989,-0.07761466503143312,1.2184696791468346e-07,0.0,0.0,0.0,1.2184696791468346e-07,0.0,0.0,0.0,1.2184696791468346e-07,0.18632635,-1.1081514499999987,10.44408225,8.999999999999999e-08,0.0,0.0,0.0,8.999999999999999e-08,0.0,0.0,0.0,8.999999999999999e-08
1737285454.0254705,12808,1737285454,23543232,base_link,0.001040938110539249,0.013074879404535548,-0.5788321014606309,-0.815341255116578,1.0,0.0,0.0,0.0,1.0,0.0,0.0,0.0,1.0,-0.21143370866775513,-0.00794824678450823,-0.020029257982969284,1.2184696791468346e-07,0.0,0.0,0.0,1.2184696791468346e-07,0.0,0.0,0.0,1.2184696791468346e-07,0.18632635,-0.05883989999999877,10.002783,8.999999999999999e-08,0.0,0.0,0.0,8.999999999999999e-08,0.0,0.0,0.0,8.999999999999999e-08
1737285454.127039,12809,1737285454,125537344,base_link,-0.0018473134085426992,0.013444794817866864,-0.5746651445358486,-0.8182761126790078,1.0,0.0,0.0,0.0,1.0,0.0,0.0,0.0,1.0,0.1507950723171234,-0.12199620902538302,-0.22276481986045835,1.2184696791468346e-07,0.0,0.0,0.0,1.2184696791468346e-07,0.0,0.0,0.0,1.2184696791468346e-07,0.00980665,0.22555295000000122,10.01258965,8.999999999999999e-08,0.0,0.0,0.0,8.999999999999999e-08,0.0,0.0,0.0,8.999999999999999e-08
1737285454.2260168,12810,1737285454,224531968,base_link,-0.0010676014279792487,0.012805050729110192,-0.5724069543689856,-0.8198689953236663,1.0,0.0,0.0,0.0,1.0,0.0,0.0,0.0,1.0,-0.12008076906204224,-0.01716043800115589,-0.32038623094558716,1.2184696791468346e-07,0.0,0.0,0.0,1.2184696791468346e-07,0.0,0.0,0.0,1.2184696791468346e-07,0.0980665,0.4020726500000012,9.50264385,8.999999999999999e-08,0.0,0.0,0.0,8.999999999999999e-08,0.0,0.0,0.0,8.999999999999999e-08
1737285454.3250344,12811,1737285454,323526848,base_link,0.0027266762457452023,0.002984663427580137,-0.5718594686699684,-0.8203416392658465,1.0,0.0,0.0,0.0,1.0,0.0,0.0,0.0,1.0,0.1645614206790924,0.05869317427277564,-0.02934588678181172,1.2184696791468346e-07,0.0,0.0,0.0,1.2184696791468346e-07,0.0,0.0,0.0,1.2184696791468346e-07,0.0,0.1961330000000011,9.0417313,8.999999999999999e-08,0.0,0.0,0.0,8.999999999999999e-08,0.0,0.0,0.0,8.999999999999999e-08
1737285454.4250004,12812,1737285454,423521216,base_link,0.006944523226653677,-0.0032549052478111854,-0.5736317837476546,-0.8190773808764751,1.0,0.0,0.0,0.0,1.0,0.0,0.0,0.0,1.0,-0.09750273823738098,0.2723360359668732,0.27302768826484675,1.2184696791468346e-07,0.0,0.0,0.0,1.2184696791468346e-07,0.0,0.0,0.0,1.2184696791468346e-07,0.18632635,0.12748645000000108,8.7867584,8.999999999999999e-08,0.0,0.0,0.0,8.999999999999999e-08,0.0,0.0,0.0,8.999999999999999e-08
1737285454.5263634,12813,1737285454,524515840,base_link,0.012167186752926456,-0.0055821158953908885,-0.5745487528337669,-0.8183608801536234,1.0,0.0,0.0,0.0,1.0,0.0,0.0,0.0,1.0,-0.17322179675102234,0.14213512837886808,-0.1773665249347687,1.2184696791468346e-07,0.0,0.0,0.0,1.2184696791468346e-07,0.0,0.0,0.0,1.2184696791468346e-07,0.22555295,-0.9904716499999987,10.01258965,8.999999999999999e-08,0.0,0.0,0.0,8.999999999999999e-08,0.0,0.0,0.0,8.999999999999999e-08
1737285454.6250567,12814,1737285454,623513280,base_link,0.01312278277550015,-0.0072422388017688985,-0.5759014292909351,-0.8173817261781813,1.0,0.0,0.0,0.0,1.0,0.0,0.0,0.0,1.0,-0.29004189372062683,0.004367537796497342,-0.02126135490834713,1.2184696791468346e-07,0.0,0.0,0.0,1.2184696791468346e-07,0.0,0.0,0.0,1.2184696791468346e-07,-0.0588399,0.36284605000000125,10.002783,8.999999999999999e-08,0.0,0.0,0.0,8.999999999999999e-08,0.0,0.0,0.0,8.999999999999999e-08
