Time,header.seq,header.stamp.secs,header.stamp.nsecs,header.frame_id,orientation.x,orientation.y,orientation.z,orientation.w,orientation_covariance_0,orientation_covariance_1,orientation_covariance_2,orientation_covariance_3,orientation_covariance_4,orientation_covariance_5,orientation_covariance_6,orientation_covariance_7,orientation_covariance_8,angular_velocity.x,angular_velocity.y,angular_velocity.z,angular_velocity_covariance_0,angular_velocity_covariance_1,angular_velocity_covariance_2,angular_velocity_covariance_3,angular_velocity_covariance_4,angular_velocity_covariance_5,angular_velocity_covariance_6,angular_velocity_covariance_7,angular_velocity_covariance_8,linear_acceleration.x,linear_acceleration.y,linear_acceleration.z,linear_acceleration_covariance_0,linear_acceleration_covariance_1,linear_acceleration_covariance_2,linear_acceleration_covariance_3,linear_acceleration_covariance_4,linear_acceleration_covariance_5,linear_acceleration_covariance_6,linear_acceleration_covariance_7,linear_acceleration_covariance_8
1737286240.2858415,20670,1737286240,185340992,base_link,0.004144728426819776,0.0006951810356592063,-0.6939380306083667,-0.7200224632780406,1.0,0.0,0.0,0.0,1.0,0.0,0.0,0.0,1.0,0.2672298550605774,0.011744339950382694,-0.12701945006847382,1.2184696791468346e-07,0.0,0.0,0.0,1.2184696791468346e-07,0.0,0.0,0.0,1.2184696791468346e-07,-0.14709975,-0.441299249999999,8.7083052,8.999999999999999e-08,0.0,0.0,0.0,8.999999999999999e-08,0.0,0.0,0.0,8.999999999999999e-08
1737286240.287686,20671,1737286240,285335872,base_link,0.007863200989033535,-0.0030317258518830843,-0.6881855827332238,-0.7254857561845707,1.0,0.0,0.0,0.0,1.0,0.0,0.0,0.0,1.0,0.05650955066084862,0.10511476546525952,-0.22063475847244263,1.2184696791468346e-07,0.0,0.0,0.0,1.2184696791468346e-07,0.0,0.0,0.0,1.2184696791468346e-07,-0.0588399,-0.5785923499999989,9.022118,8.999999999999999e-08,0.0,0.0,0.0,8.999999999999999e-08,0.0,0.0,0.0,8.999999999999999e-08
1737286240.3858984,20672,1737286240,384330752,base_link,0.006557307530820901,-0.003867030555678818,-0.6837283422231119,-0.7296969246430074,1.0,0.0,0.0,0.0,1.0,0.0,0.0,0.0,1.0,0.09240926802158356,-0.23516276478767398,-0.2574468553066253,1.2184696791468346e-07,0.0,0.0,0.0,1.2184696791468346e-07,0.0,0.0,0.0,1.2184696791468346e-07,-0.32361945000000003,0.078453200000001,8.1002929,8.999999999999999e-08,0.0,0.0,0.0,8.999999999999999e-08,0.0,0.0,0.0,8.999999999999999e-08
1737286240.4870613,20673,1737286240,485325632,base_link,0.009027953316749259,-0.006088818349844838,-0.6828215438472863,-0.7305040462639625,1.0,0.0,0.0,0.0,1.0,0.0,0.0,0.0,1.0,-0.197380930185318,0.22053593397140503,0.05914730951189992,1.2184696791468346e-07,0.0,0.0,0.0,1.2184696791468346e-07,0.0,0.0,0.0,1.2184696791468346e-07,-0.3334261,0.254972900000001,8.01203305,8.999999999999999e-08,0.0,0.0,0.0,8.999999999999999e-08,0.0,0.0,0.0,8.999999999999999e-08
1737286240.5840755,20674,1737286240,583319744,base_link,0.00860896596552964,-0.007107218805410413,-0.6826436184706388,-0.7306661777495723,1.0,0.0,0.0,0.0,1.0,0.0,0.0,0.0,1.0,0.22936712205410004,-0.20571225881576538,0.05378701537847522,1.2184696791468346e-07,0.0,0.0,0.0,1.2184696791468346e-07,0.0,0.0,0.0,1.2184696791468346e-07,0.02941995,-0.8139519499999989,9.6693569,8.999999999999999e-08,0.0,0.0,0.0,8.999999999999999e-08,0.0,0.0,0.0,8.999999999999999e-08
1737286240.6873314,20675,1737286240,685313856,base_link,0.012341244584286766,-0.007253233220148222,-0.6850769646213392,-0.7283300329075943,1.0,0.0,0.0,0.0,1.0,0.0,0.0,0.0,1.0,0.17354844510555267,-0.2805546522140503,-0.08723969757556913,1.2184696791468346e-07,0.0,0.0,0.0,1.2184696791468346e-07,0.0,0.0,0.0,1.2184696791468346e-07,-0.04903325,-0.06864654999999897,8.42391235,8.999999999999999e-08,0.0,0.0,0.0,8.999999999999999e-08,0.0,0.0,0.0,8.999999999999999e-08
1737286240.786461,20676,1737286240,785308224,base_link,0.013500346233699086,-0.007739588553904812,-0.6895924845649897,-0.7240304169384536,1.0,0.0,0.0,0.0,1.0,0.0,0.0,0.0,1.0,-0.16712075471878052,0.07989507913589482,0.28376203775405884,1.2184696791468346e-07,0.0,0.0,0.0,1.2184696791468346e-07,0.0,0.0,0.0,1.2184696791468346e-07,-0.42168595,0.48052585000000103,8.4729456,8.999999999999999e-08,0.0,0.0,0.0,8.999999999999999e-08,0.0,0.0,0.0,8.999999999999999e-08
1737286240.8899498,20677,1737286240,885302336,base_link,0.013877496733065734,-0.0061429612017695765,-0.6905332784381603,-0.7231413903805697,1.0,0.0,0.0,0.0,1.0,0.0,0.0,0.0,1.0,0.3177565634250641,-0.24391156435012817,-0.057021554559469195,1.2184696791468346e-07,0.0,0.0,0.0,1.2184696791468346e-07,0.0,0.0,0.0,1.2184696791468346e-07,-0.1176798,-0.7256920999999988,9.40457735,8.999999999999999e-08,0.0,0.0,0.0,8.999999999999999e-08,0.0,0.0,0.0,8.999999999999999e-08
1737286240.9854822,20678,1737286240,983296960,base_link,0.018066059503453684,-0.006897283692453594,-0.6933306853207349,-0.7203600528654843,1.0,0.0,0.0,0.0,1.0,0.0,0.0,0.0,1.0,-0.1067090556025505,-0.06302000582218173,-0.17736616730690002,1.2184696791468346e-07,0.0,0.0,0.0,1.2184696791468346e-07,0.0,0.0,0.0,1.2184696791468346e-07,0.04903325,0.27458620000000117,9.28689755,8.999999999999999e-08,0.0,0.0,0.0,8.999999999999999e-08,0.0,0.0,0.0,8.999999999999999e-08
1737286241.0878859,20679,1737286241,85291840,base_link,0.014822688730014652,-0.0077248355829138285,-0.6929223720644156,-0.7208184245055429,1.0,0.0,0.0,0.0,1.0,0.0,0.0,0.0,1.0,-0.1422511339187622,-0.09791335463523866,-0.13948377966880798,1.2184696791468346e-07,0.0,0.0,0.0,1.2184696791468346e-07,0.0,0.0,0.0,1.2184696791468346e-07,-0.3334261,0.519752450000001,8.12971285,8.999999999999999e-08,0.0,0.0,0.0,8.999999999999999e-08,0.0,0.0,0.0,8.999999999999999e-08
1737286241.1865265,20680,1737286241,185286208,base_link,0.013644192532174696,-0.008490429799664335,-0.6886672986464459,-0.7248993725938578,1.0,0.0,0.0,0.0,1.0,0.0,0.0,0.0,1.0,-0.030797749757766724,0.28143370151519775,-0.06709234416484836,1.2184696791468346e-07,0.0,0.0,0.0,1.2184696791468346e-07,0.0,0.0,0.0,1.2184696791468346e-07,-0.02941995,-0.34323274999999903,8.1787461,8.999999999999999e-08,0.0,0.0,0.0,8.999999999999999e-08,0.0,0.0,0.0,8.999999999999999e-08
1737286241.2877336,20681,1737286241,285280832,base_link,0.00981424969583099,-0.008193388678816341,-0.6851323802038077,-0.7283063713034035,1.0,0.0,0.0,0.0,1.0,0.0,0.0,0.0,1.0,-0.0012569375103339553,-0.237844854593277,-0.14440701901912686,1.2184696791468346e-07,0.0,0.0,0.0,1.2184696791468346e-07,0.0,0.0,0.0,1.2184696791468346e-07,-0.196133,-0.4511058999999987,10.07142955,8.999999999999999e-08,0.0,0.0,0.0,8.999999999999999e-08,0.0,0.0,0.0,8.999999999999999e-08
1737286241.3867304,20682,1737286241,385275456,base_link,0.011922275865178694,-0.009892929234796802,-0.6838619799139238,-0.7294469012324051,1.0,0.0,0.0,0.0,1.0,0.0,0.0,0.0,1.0,-0.1033792644739151,0.32852256298065186,0.04921156913042064,1.2184696791468346e-07,0.0,0.0,0.0,1.2184696791468346e-07,0.0,0.0,0.0,1.2184696791468346e-07,-0.1176798,-0.098066499999999,8.09048625,8.999999999999999e-08,0.0,0.0,0.0,8.999999999999999e-08,0.0,0.0,0.0,8.999999999999999e-08
1737286241.487645,20683,1737286241,485270080,base_link,0.011250815840980382,-0.009426917549515867,-0.6872049560713677,-0.7263152901594296,1.0,0.0,0.0,0.0,1.0,0.0,0.0,0.0,1.0,-0.05036955326795578,0.007238702848553679,0.17360717058181763,1.2184696791468346e-07,0.0,0.0,0.0,1.2184696791468346e-07,0.0,0.0,0.0,1.2184696791468346e-07,-0.1176798,-0.6570455499999988,10.179302700000001,8.999999999999999e-08,0.0,0.0,0.0,8.999999999999999e-08,0.0,0.0,0.0,8.999999999999999e-08
1737286241.5854836,20684,1737286241,584265984,base_link,0.010742004469953489,-0.009569768898243883,-0.7199700038568431,-0.6938560530899612,1.0,0.0,0.0,0.0,1.0,0.0,0.0,0.0,1.0,0.09862986207008362,-0.1060659885406494,0.11126497387886049,1.2184696791468346e-07,0.0,0.0,0.0,1.2184696791468346e-07,0.0,0.0,0.0,1.2184696791468346e-07,-0.12748645,-0.8433718999999988,8.6690786,8.999999999999999e-08,0.0,0.0,0.0,8.999999999999999e-08,0.0,0.0,0.0,8.999999999999999e-08
1737286241.6881504,20685,1737286241,683259328,base_link,0.007252540210753839,-0.00989229313197095,-0.7570992166121686,-0.6531847513547168,1.0,0.0,0.0,0.0,1.0,0.0,0.0,0.0,1.0,0.25658097863197327,-0.3318061530590058,-0.288407415151596,1.2184696791468346e-07,0.0,0.0,0.0,1.2184696791468346e-07,0.0,0.0,0.0,1.2184696791468346e-07,-0.32361945000000003,-0.48052584999999887,8.95347145,8.999999999999999e-08,0.0,0.0,0.0,8.999999999999999e-08,0.0,0.0,0.0,8.999999999999999e-08
1737286241.787677,20686,1737286241,784253440,base_link,0.008239595037918329,-0.011829690198845668,-0.7650728065974917,-0.6437823918906508,1.0,0.0,0.0,0.0,1.0,0.0,0.0,0.0,1.0,0.061867035925388336,-0.04265446588397034,-0.6293251514434814,1.2184696791468346e-07,0.0,0.0,0.0,1.2184696791468346e-07,0.0,0.0,0.0,1.2184696791468346e-07,-0.2745862,0.323619450000001,8.14932615,8.999999999999999e-08,0.0,0.0,0.0,8.999999999999999e-08,0.0,0.0,0.0,8.999999999999999e-08
1737286241.8871229,20687,1737286241,883249344,base_link,0.0074489665033012735,-0.010624755303007263,-0.7517271936326575,-0.6593465354621596,1.0,0.0,0.0,0.0,1.0,0.0,0.0,0.0,1.0,-0.07060188800096512,0.1713352501392364,-0.42120981216430664,1.2184696791468346e-07,0.0,0.0,0.0,1.2184696791468346e-07,0.0,0.0,0.0,1.2184696791468346e-07,-0.71588545,0.41187930000000117,9.95374975,8.999999999999999e-08,0.0,0.0,0.0,8.999999999999999e-08,0.0,0.0,0.0,8.999999999999999e-08
1737286241.9880662,20688,1737286241,985245504,base_link,0.007931646199114312,-0.007903451167701041,-0.7267405777919936,-0.6868207604890604,1.0,0.0,0.0,0.0,1.0,0.0,0.0,0.0,1.0,-0.03837161511182785,-0.2079375535249711,-0.7288996577262878,1.2184696791468346e-07,0.0,0.0,0.0,1.2184696791468346e-07,0.0,0.0,0.0,1.2184696791468346e-07,0.0,-0.9512450499999989,9.56148375,8.999999999999999e-08,0.0,0.0,0.0,8.999999999999999e-08,0.0,0.0,0.0,8.999999999999999e-08
1737286242.08951,20689,1737286242,84243712,base_link,0.01041024855648928,-0.010196692781063926,-0.7003653726010561,-0.7136357607650449,1.0,0.0,0.0,0.0,1.0,0.0,0.0,0.0,1.0,0.1666693240404129,-0.1260490119457246,-0.7983667850494385,1.2184696791468346e-07,0.0,0.0,0.0,1.2184696791468346e-07,0.0,0.0,0.0,1.2184696791468346e-07,0.06864655,-0.608012299999999,8.71811185,8.999999999999999e-08,0.0,0.0,0.0,8.999999999999999e-08,0.0,0.0,0.0,8.999999999999999e-08
1737286242.1855755,20690,1737286242,183239872,base_link,0.00909060930715501,-0.010450929092290033,-0.6803578696523347,-0.7327491440497692,1.0,0.0,0.0,0.0,1.0,0.0,0.0,0.0,1.0,-0.08043072372674942,-0.22278173267841345,-0.5621006488800049,1.2184696791468346e-07,0.0,0.0,0.0,1.2184696791468346e-07,0.0,0.0,0.0,1.2184696791468346e-07,-0.38245935,0.27458620000000117,9.69877685,8.999999999999999e-08,0.0,0.0,0.0,8.999999999999999e-08,0.0,0.0,0.0,8.999999999999999e-08
1737286242.2899861,20691,1737286242,286237056,base_link,0.0028483507966262315,-0.010398714686756943,-0.6707186578587357,-0.7416334914435696,1.0,0.0,0.0,0.0,1.0,0.0,0.0,0.0,1.0,0.273296058177948,-0.3177803158760071,0.04975152388215069,1.2184696791468346e-07,0.0,0.0,0.0,1.2184696791468346e-07,0.0,0.0,0.0,1.2184696791468346e-07,-0.1372931,0.01961330000000123,10.0223963,8.999999999999999e-08,0.0,0.0,0.0,8.999999999999999e-08,0.0,0.0,0.0,8.999999999999999e-08
1737286242.3872106,20692,1737286242,385231936,base_link,0.00032432349528317597,-0.010176378122973395,-0.6726939776976512,-0.7398507609726983,1.0,0.0,0.0,0.0,1.0,0.0,0.0,0.0,1.0,0.20156873762607574,-0.0620484799146652,0.15260592103004456,1.2184696791468346e-07,0.0,0.0,0.0,1.2184696791468346e-07,0.0,0.0,0.0,1.2184696791468346e-07,-0.1176798,-0.7453053999999988,10.13026945,8.999999999999999e-08,0.0,0.0,0.0,8.999999999999999e-08,0.0,0.0,0.0,8.999999999999999e-08
1737286242.489251,20693,1737286242,486229120,base_link,0.0011013427395944846,-0.010707998906885124,-0.6802209264896801,-0.7329281117334094,1.0,0.0,0.0,0.0,1.0,0.0,0.0,0.0,1.0,-0.16213244199752808,0.37513518333435064,0.2994150817394256,1.2184696791468346e-07,0.0,0.0,0.0,1.2184696791468346e-07,0.0,0.0,0.0,1.2184696791468346e-07,0.0980665,-0.17651969999999872,10.44408225,8.999999999999999e-08,0.0,0.0,0.0,8.999999999999999e-08,0.0,0.0,0.0,8.999999999999999e-08
1737286242.5872574,20694,1737286242,585224000,base_link,0.001008811930885923,-0.010738405423921321,-0.6899682749401249,-0.7237592476256092,1.0,0.0,0.0,0.0,1.0,0.0,0.0,0.0,1.0,-0.287853479385376,0.19371919333934787,0.22975943982601163,1.2184696791468346e-07,0.0,0.0,0.0,1.2184696791468346e-07,0.0,0.0,0.0,1.2184696791468346e-07,-0.1372931,0.17651970000000108,8.7279185,8.999999999999999e-08,0.0,0.0,0.0,8.999999999999999e-08,0.0,0.0,0.0,8.999999999999999e-08
1737286242.6863399,20695,1737286242,684220160,base_link,0.0009508612720693009,-0.00947893534408158,-0.6980350184713011,-0.7160002504436392,1.0,0.0,0.0,0.0,1.0,0.0,0.0,0.0,1.0,-0.22245021164417267,0.09623534977436066,-0.02829675003886224,1.2184696791468346e-07,0.0,0.0,0.0,1.2184696791468346e-07,0.0,0.0,0.0,1.2184696791468346e-07,-0.12748645,-0.2941994999999987,10.395049,8.999999999999999e-08,0.0,0.0,0.0,8.999999999999999e-08,0.0,0.0,0.0,8.999999999999999e-08
1737286242.786228,20696,1737286242,784215552,base_link,-0.002664045755063865,-0.00928028753439124,-0.7033105568236014,-0.7108171633999629,1.0,0.0,0.0,0.0,1.0,0.0,0.0,0.0,1.0,0.2468084841966629,-0.25782284140586853,0.026856157928705247,1.2184696791468346e-07,0.0,0.0,0.0,1.2184696791468346e-07,0.0,0.0,0.0,1.2184696791468346e-07,-0.3334261,-0.42168594999999887,9.3555441,8.999999999999999e-08,0.0,0.0,0.0,8.999999999999999e-08,0.0,0.0,0.0,8.999999999999999e-08
1737286242.8855803,20697,1737286242,883209920,base_link,0.004356196354110789,-0.007966957621285409,-0.7045998376286133,-0.7095467708004292,1.0,0.0,0.0,0.0,1.0,0.0,0.0,0.0,1.0,-0.06372451037168503,0.30043417215347284,-0.26342430710792547,1.2184696791468346e-07,0.0,0.0,0.0,1.2184696791468346e-07,0.0,0.0,0.0,1.2184696791468346e-07,-0.2941995,0.48052585000000114,9.1986377,8.999999999999999e-08,0.0,0.0,0.0,8.999999999999999e-08,0.0,0.0,0.0,8.999999999999999e-08
1737286242.987073,20698,1737286242,984207104,base_link,0.002309605132545387,-0.007609418860758359,-0.6983826620563789,-0.715680389425181,1.0,0.0,0.0,0.0,1.0,0.0,0.0,0.0,1.0,-0.05943044647574425,-0.07493794709444049,-0.23253342509269714,1.2184696791468346e-07,0.0,0.0,0.0,1.2184696791468346e-07,0.0,0.0,0.0,1.2184696791468346e-07,-0.30400615,0.19613300000000128,10.6107953,8.999999999999999e-08,0.0,0.0,0.0,8.999999999999999e-08,0.0,0.0,0.0,8.999999999999999e-08
1737286243.088376,20699,1737286243,86199680,base_link,0.002990543632855849,-0.007023565808645161,-0.6895505047723509,-0.7241973678081878,1.0,0.0,0.0,0.0,1.0,0.0,0.0,0.0,1.0,-0.13628028333187103,-0.005411242134869134,-0.2895326018333435,1.2184696791468346e-07,0.0,0.0,0.0,1.2184696791468346e-07,0.0,0.0,0.0,1.2184696791468346e-07,0.0,-0.6080122999999988,9.3751574,8.999999999999999e-08,0.0,0.0,0.0,8.999999999999999e-08,0.0,0.0,0.0,8.999999999999999e-08
1737286243.1874533,20700,1737286243,184195840,base_link,-0.0017619127773220093,-0.0074825142321871315,-0.6845537561852051,-0.7289218494028403,1.0,0.0,0.0,0.0,1.0,0.0,0.0,0.0,1.0,0.29527491331100464,-0.24060891568660736,-0.09515029937028882,1.2184696791468346e-07,0.0,0.0,0.0,1.2184696791468346e-07,0.0,0.0,0.0,1.2184696791468346e-07,-0.61781895,-0.3040061499999987,10.62060195,8.999999999999999e-08,0.0,0.0,0.0,8.999999999999999e-08,0.0,0.0,0.0,8.999999999999999e-08
1737286243.2865148,20701,1737286243,283188160,base_link,-0.0018479275547216077,-0.004869193580132126,-0.6849398383784193,-0.7285810139715257,1.0,0.0,0.0,0.0,1.0,0.0,0.0,0.0,1.0,-0.4760177731513977,0.1792428344488144,-0.046674419194459936,1.2184696791468346e-07,0.0,0.0,0.0,1.2184696791468346e-07,0.0,0.0,0.0,1.2184696791468346e-07,-0.59820565,-0.6276255999999988,9.9635564,8.999999999999999e-08,0.0,0.0,0.0,8.999999999999999e-08,0.0,0.0,0.0,8.999999999999999e-08
1737286243.3873003,20702,1737286243,385184320,base_link,-0.002290051245097649,-0.004308412763620009,-0.6868910416355283,-0.726744033457181,1.0,0.0,0.0,0.0,1.0,0.0,0.0,0.0,1.0,-0.14593663811683655,0.3356913626194,0.06648153811693187,1.2184696791468346e-07,0.0,0.0,0.0,1.2184696791468346e-07,0.0,0.0,0.0,1.2184696791468346e-07,0.0,-0.19613299999999873,10.395049,8.999999999999999e-08,0.0,0.0,0.0,8.999999999999999e-08,0.0,0.0,0.0,8.999999999999999e-08
1737286243.4918053,20703,1737286243,488177664,base_link,-0.006313661446401783,-0.0031582349993407657,-0.6898452644642898,-0.7239224228652011,1.0,0.0,0.0,0.0,1.0,0.0,0.0,0.0,1.0,0.054010361433029175,-0.11199158430099486,0.1400650143623352,1.2184696791468346e-07,0.0,0.0,0.0,1.2184696791468346e-07,0.0,0.0,0.0,1.2184696791468346e-07,-0.24516625,-0.4609125499999986,11.3953273,8.999999999999999e-08,0.0,0.0,0.0,8.999999999999999e-08,0.0,0.0,0.0,8.999999999999999e-08
1737286243.5861788,20704,1737286243,584172800,base_link,-0.004445566251050513,-0.005076156986671885,-0.6894356946576967,-0.7243154647685034,1.0,0.0,0.0,0.0,1.0,0.0,0.0,0.0,1.0,0.23558537662029266,-0.22017459571361545,-0.14905422925949094,1.2184696791468346e-07,0.0,0.0,0.0,1.2184696791468346e-07,0.0,0.0,0.0,1.2184696791468346e-07,-0.00980665,-0.5295590999999988,9.65955025,8.999999999999999e-08,0.0,0.0,0.0,8.999999999999999e-08,0.0,0.0,0.0,8.999999999999999e-08
1737286243.6883676,20705,1737286243,686165632,base_link,-0.003512193022533299,-0.0043314522795493094,-0.6896976571326251,-0.7240759937790302,1.0,0.0,0.0,0.0,1.0,0.0,0.0,0.0,1.0,0.3715643584728241,-0.5041934847831726,-0.10175205022096628,1.2184696791468346e-07,0.0,0.0,0.0,1.2184696791468346e-07,0.0,0.0,0.0,1.2184696791468346e-07,-0.2745862,-0.14709974999999872,10.4342756,8.999999999999999e-08,0.0,0.0,0.0,8.999999999999999e-08,0.0,0.0,0.0,8.999999999999999e-08
1737286243.7874348,20706,1737286243,785161792,base_link,-0.008403316785129775,-0.0044089312058894796,-0.6924991873572068,-0.7213562373073646,1.0,0.0,0.0,0.0,1.0,0.0,0.0,0.0,1.0,0.018911316990852356,0.10057649761438373,0.22388295829296112,1.2184696791468346e-07,0.0,0.0,0.0,1.2184696791468346e-07,0.0,0.0,0.0,1.2184696791468346e-07,-0.46091255,0.16671305000000108,8.87501825,8.999999999999999e-08,0.0,0.0,0.0,8.999999999999999e-08,0.0,0.0,0.0,8.999999999999999e-08
1737286243.8848884,20707,1737286243,883154112,base_link,-0.008666605331157895,-0.0015272788302246876,-0.6955324080074431,-0.7184408303978669,1.0,0.0,0.0,0.0,1.0,0.0,0.0,0.0,1.0,-0.3505251407623291,0.14527754485607147,0.05726567283272741,1.2184696791468346e-07,0.0,0.0,0.0,1.2184696791468346e-07,0.0,0.0,0.0,1.2184696791468346e-07,-0.3726527,-0.6178189499999988,10.091042850000001,8.999999999999999e-08,0.0,0.0,0.0,8.999999999999999e-08,0.0,0.0,0.0,8.999999999999999e-08
1737286243.9875107,20708,1737286243,985145152,base_link,-0.00866449943501456,-0.0006483759547768785,-0.6975631961074759,-0.7164705810390857,1.0,0.0,0.0,0.0,1.0,0.0,0.0,0.0,1.0,-0.20307467877864838,0.10098192095756531,0.009623479098081577,1.2184696791468346e-07,0.0,0.0,0.0,1.2184696791468346e-07,0.0,0.0,0.0,1.2184696791468346e-07,-0.00980665,-0.0882598499999987,10.6107953,8.999999999999999e-08,0.0,0.0,0.0,8.999999999999999e-08,0.0,0.0,0.0,8.999999999999999e-08
1737286244.0864305,20709,1737286244,84142336,base_link,-0.00013586499828242,-0.0015907988323911593,-0.6991939198182461,-0.7149302856845368,1.0,0.0,0.0,0.0,1.0,0.0,0.0,0.0,1.0,-0.07099708914756775,0.23638200759887695,-0.06515860557556155,1.2184696791468346e-07,0.0,0.0,0.0,1.2184696791468346e-07,0.0,0.0,0.0,1.2184696791468346e-07,-0.24516625,0.0490332500000013,10.6107953,8.999999999999999e-08,0.0,0.0,0.0,8.999999999999999e-08,0.0,0.0,0.0,8.999999999999999e-08
1737286244.1879938,20710,1737286244,185142336,base_link,-0.003275604467142627,-0.0003503109440422147,-0.6990064725688149,-0.7151077534221819,1.0,0.0,0.0,0.0,1.0,0.0,0.0,0.0,1.0,0.06893855333328247,-0.010181900113821021,0.0680774375796318,1.2184696791468346e-07,0.0,0.0,0.0,1.2184696791468346e-07,0.0,0.0,0.0,1.2184696791468346e-07,-0.38245935,-0.3334260999999989,8.8848249,8.999999999999999e-08,0.0,0.0,0.0,8.999999999999999e-08,0.0,0.0,0.0,8.999999999999999e-08
1737286244.2869089,20711,1737286244,283132352,base_link,0.0011237665581987964,0.0007023447415375858,-0.6954398725898878,-0.7185830692917466,1.0,0.0,0.0,0.0,1.0,0.0,0.0,0.0,1.0,0.07458174973726273,-0.23143723607063296,-0.23781192302703855,1.2184696791468346e-07,0.0,0.0,0.0,1.2184696791468346e-07,0.0,0.0,0.0,1.2184696791468346e-07,0.04903325,-0.28439284999999886,9.0809579,8.999999999999999e-08,0.0,0.0,0.0,8.999999999999999e-08,0.0,0.0,0.0,8.999999999999999e-08
1737286244.3894863,20712,1737286244,385132352,base_link,0.0011515976186187138,0.0001419664776886963,-0.6923787763690592,-0.7215332866210181,1.0,0.0,0.0,0.0,1.0,0.0,0.0,0.0,1.0,-0.08075004816055298,-0.2788686156272888,-0.08472562581300733,1.2184696791468346e-07,0.0,0.0,0.0,1.2184696791468346e-07,0.0,0.0,0.0,1.2184696791468346e-07,-0.06864655,-0.5785923499999989,9.8851032,8.999999999999999e-08,0.0,0.0,0.0,8.999999999999999e-08,0.0,0.0,0.0,8.999999999999999e-08
1737286244.4865427,20713,1737286244,484132352,base_link,0.0039011005787266133,0.0022295750865151784,-0.6891731940731373,-0.7245827205918163,1.0,0.0,0.0,0.0,1.0,0.0,0.0,0.0,1.0,-0.30926215648651123,0.16772003471851346,-0.2390871495008469,1.2184696791468346e-07,0.0,0.0,0.0,1.2184696791468346e-07,0.0,0.0,0.0,1.2184696791468346e-07,-0.4903325,-0.2941994999999989,9.03192465,8.999999999999999e-08,0.0,0.0,0.0,8.999999999999999e-08,0.0,0.0,0.0,8.999999999999999e-08
1737286244.585764,20714,1737286244,583121344,base_link,0.0056922001625369905,0.0014953484125083706,-0.6895756525191375,-0.7241897418793231,1.0,0.0,0.0,0.0,1.0,0.0,0.0,0.0,1.0,-0.11770153045654297,0.225686714053154,-0.0005427707219496646,1.2184696791468346e-07,0.0,0.0,0.0,1.2184696791468346e-07,0.0,0.0,0.0,1.2184696791468346e-07,0.28439285000000003,0.05883990000000125,10.16949605,8.999999999999999e-08,0.0,0.0,0.0,8.999999999999999e-08,0.0,0.0,0.0,8.999999999999999e-08
1737286244.6874685,20715,1737286244,685114432,base_link,0.002950264811671728,0.003247742848344482,-0.6919230570895828,-0.7219579150973676,1.0,0.0,0.0,0.0,1.0,0.0,0.0,0.0,1.0,0.00526993814855814,-0.1021212860941887,-0.0787869095802307,1.2184696791468346e-07,0.0,0.0,0.0,1.2184696791468346e-07,0.0,0.0,0.0,1.2184696791468346e-07,-0.3726527,-0.5785923499999986,11.03248125,8.999999999999999e-08,0.0,0.0,0.0,8.999999999999999e-08,0.0,0.0,0.0,8.999999999999999e-08
1737286244.788398,20716,1737286244,784103680,base_link,-0.0010638655452242453,0.004258246399782087,-0.6919884237888271,-0.7218952533920384,1.0,0.0,0.0,0.0,1.0,0.0,0.0,0.0,1.0,0.2746216058731079,-0.28378432989120483,-0.09647817164659496,1.2184696791468346e-07,0.0,0.0,0.0,1.2184696791468346e-07,0.0,0.0,0.0,1.2184696791468346e-07,-0.2941995,0.08825985000000124,10.0812362,8.999999999999999e-08,0.0,0.0,0.0,8.999999999999999e-08,0.0,0.0,0.0,8.999999999999999e-08
1737286244.8856463,20717,1737286244,883099584,base_link,-0.003526299091012579,0.0038724257720906185,-0.6919688015011399,-0.7219084064356338,1.0,0.0,0.0,0.0,1.0,0.0,0.0,0.0,1.0,0.19790643453598022,0.061777342110872276,0.07709135115146636,1.2184696791468346e-07,0.0,0.0,0.0,1.2184696791468346e-07,0.0,0.0,0.0,1.2184696791468346e-07,-0.12748645,0.38245935000000114,9.1594111,8.999999999999999e-08,0.0,0.0,0.0,8.999999999999999e-08,0.0,0.0,0.0,8.999999999999999e-08
1737286244.9864037,20718,1737286244,984099584,base_link,-0.00032628830539767963,0.001804606936942539,-0.6926353528991218,-0.7212855917346847,1.0,0.0,0.0,0.0,1.0,0.0,0.0,0.0,1.0,0.259267121553421,-6.126519292591399e-05,0.13088223338127136,1.2184696791468346e-07,0.0,0.0,0.0,1.2184696791468346e-07,0.0,0.0,0.0,1.2184696791468346e-07,-0.30400615,0.28439285000000114,9.05153795,8.999999999999999e-08,0.0,0.0,0.0,8.999999999999999e-08,0.0,0.0,0.0,8.999999999999999e-08
1737286245.0875442,20719,1737286245,85098304,base_link,0.002212060768110043,-5.52945150789558e-05,-0.6946258230324956,-0.719367826432419,1.0,0.0,0.0,0.0,1.0,0.0,0.0,0.0,1.0,0.24594540894031525,-0.15396466851234433,0.12833674252033236,1.2184696791468346e-07,0.0,0.0,0.0,1.2184696791468346e-07,0.0,0.0,0.0,1.2184696791468346e-07,-0.08825985,-0.7158854499999987,10.5127288,8.999999999999999e-08,0.0,0.0,0.0,8.999999999999999e-08,0.0,0.0,0.0,8.999999999999999e-08
1737286245.187631,20720,1737286245,184094208,base_link,0.0009453061550822978,-0.0005170762798124793,-0.6956643522129884,-0.7183661657459081,1.0,0.0,0.0,0.0,1.0,0.0,0.0,0.0,1.0,-0.032143812626600266,-0.03906556963920593,-0.004906977526843543,1.2184696791468346e-07,0.0,0.0,0.0,1.2184696791468346e-07,0.0,0.0,0.0,1.2184696791468346e-07,-0.20593965,-0.12748644999999867,10.81673495,8.999999999999999e-08,0.0,0.0,0.0,8.999999999999999e-08,0.0,0.0,0.0,8.999999999999999e-08
1737286245.2917404,20721,1737286245,288090624,base_link,0.000971740965814166,0.0007112535591934165,-0.6965226297315769,-0.7175338153074589,1.0,0.0,0.0,0.0,1.0,0.0,0.0,0.0,1.0,-0.07301869988441467,-0.23576608300209045,-0.04860635101795194,1.2184696791468346e-07,0.0,0.0,0.0,1.2184696791468346e-07,0.0,0.0,0.0,1.2184696791468346e-07,-0.10787315,0.11767980000000128,10.44408225,8.999999999999999e-08,0.0,0.0,0.0,8.999999999999999e-08,0.0,0.0,0.0,8.999999999999999e-08
1737286245.3866122,20722,1737286245,384086784,base_link,-0.0010360239985295794,0.0007369000310355641,-0.694816936174152,-0.7191855176782853,1.0,0.0,0.0,0.0,1.0,0.0,0.0,0.0,1.0,0.20833031833171844,-0.06311503052711487,0.048599950969219215,1.2184696791468346e-07,0.0,0.0,0.0,1.2184696791468346e-07,0.0,0.0,0.0,1.2184696791468346e-07,-0.08825985,-0.42168594999999887,8.87501825,8.999999999999999e-08,0.0,0.0,0.0,8.999999999999999e-08,0.0,0.0,0.0,8.999999999999999e-08
1737286245.4876208,20723,1737286245,485083456,base_link,-0.0031735932573485,0.0010674386598202466,-0.6943927090606169,-0.7195884618891564,1.0,0.0,0.0,0.0,1.0,0.0,0.0,0.0,1.0,0.054856471717357635,0.11129004508256914,0.0960366129875183,1.2184696791468346e-07,0.0,0.0,0.0,1.2184696791468346e-07,0.0,0.0,0.0,1.2184696791468346e-07,-0.30400615,-0.18632634999999886,9.52225715,8.999999999999999e-08,0.0,0.0,0.0,8.999999999999999e-08,0.0,0.0,0.0,8.999999999999999e-08
1737286245.586377,20724,1737286245,584077824,base_link,0.003764856980398213,0.0004376995743002469,-0.6947389123599463,-0.7192520267082457,1.0,0.0,0.0,0.0,1.0,0.0,0.0,0.0,1.0,-0.10865429788827896,0.12661932408809662,-0.058289442211389556,1.2184696791468346e-07,0.0,0.0,0.0,1.2184696791468346e-07,0.0,0.0,0.0,1.2184696791468346e-07,-0.02941995,-0.12748644999999884,9.4928372,8.999999999999999e-08,0.0,0.0,0.0,8.999999999999999e-08,0.0,0.0,0.0,8.999999999999999e-08
1737286245.6884482,20725,1737286245,686071424,base_link,0.005402333783099331,-0.0006843473065585711,-0.6936006351308083,-0.7203391599827118,1.0,0.0,0.0,0.0,1.0,0.0,0.0,0.0,1.0,0.13013696670532227,-0.15160174667835238,-0.15436275303363797,1.2184696791468346e-07,0.0,0.0,0.0,1.2184696791468346e-07,0.0,0.0,0.0,1.2184696791468346e-07,-0.4118793,-0.40207264999999875,10.38524235,8.999999999999999e-08,0.0,0.0,0.0,8.999999999999999e-08,0.0,0.0,0.0,8.999999999999999e-08
1737286245.787341,20726,1737286245,785067328,base_link,0.003182498317662365,0.0004400304785373165,-0.6914430427226383,-0.7224238345653441,1.0,0.0,0.0,0.0,1.0,0.0,0.0,0.0,1.0,0.1843554973602295,-0.4393710792064667,-0.13641589879989618,1.2184696791468346e-07,0.0,0.0,0.0,1.2184696791468346e-07,0.0,0.0,0.0,1.2184696791468346e-07,-0.08825985,-0.17651969999999886,9.4732239,8.999999999999999e-08,0.0,0.0,0.0,8.999999999999999e-08,0.0,0.0,0.0,8.999999999999999e-08
1737286245.88618,20727,1737286245,883061952,base_link,0.004593849406223359,-0.0011764666478937342,-0.6911142441257461,-0.722729973116072,1.0,0.0,0.0,0.0,1.0,0.0,0.0,0.0,1.0,-0.015463908202946186,0.1859187036752701,0.14168061316013333,1.2184696791468346e-07,0.0,0.0,0.0,1.2184696791468346e-07,0.0,0.0,0.0,1.2184696791468346e-07,-0.1176798,0.22555295000000106,8.4925589,8.999999999999999e-08,0.0,0.0,0.0,8.999999999999999e-08,0.0,0.0,0.0,8.999999999999999e-08
1737286245.986138,20728,1737286245,983057344,base_link,0.005031854564178262,-0.0014709601660346852,-0.6902345733001769,-0.723566687000554,1.0,0.0,0.0,0.0,1.0,0.0,0.0,0.0,1.0,0.0927070900797844,-0.25937023758888245,-0.14786790311336515,1.2184696791468346e-07,0.0,0.0,0.0,1.2184696791468346e-07,0.0,0.0,0.0,1.2184696791468346e-07,-0.36284605000000003,-0.09806649999999886,9.22805765,8.999999999999999e-08,0.0,0.0,0.0,8.999999999999999e-08,0.0,0.0,0.0,8.999999999999999e-08
1737286246.0859995,20729,1737286246,83051712,base_link,0.0048817098814855275,-0.0014140823850266654,-0.6896945716810167,-0.7240825692373627,1.0,0.0,0.0,0.0,1.0,0.0,0.0,0.0,1.0,0.1780746877193451,-0.35898441076278687,-0.05074598640203472,1.2184696791468346e-07,0.0,0.0,0.0,1.2184696791468346e-07,0.0,0.0,0.0,1.2184696791468346e-07,-0.12748645,-0.4020726499999987,10.56176205,8.999999999999999e-08,0.0,0.0,0.0,8.999999999999999e-08,0.0,0.0,0.0,8.999999999999999e-08
1737286246.1931636,20730,1737286246,191048640,base_link,0.009526707069985721,-0.0035185667662688967,-0.6908335301782209,-0.722942525462302,1.0,0.0,0.0,0.0,1.0,0.0,0.0,0.0,1.0,-0.3613218069076538,0.45280855894088745,0.1805639266967773,1.2184696791468346e-07,0.0,0.0,0.0,1.2184696791468346e-07,0.0,0.0,0.0,1.2184696791468346e-07,-0.2745862,-0.5785923499999986,11.26784085,8.999999999999999e-08,0.0,0.0,0.0,8.999999999999999e-08,0.0,0.0,0.0,8.999999999999999e-08
1737286246.291928,20731,1737286246,289040704,base_link,0.010661286586689411,-0.0023514899653602926,-0.6917746840607756,-0.7220308815804719,1.0,0.0,0.0,0.0,1.0,0.0,0.0,0.0,1.0,-0.1588803231716156,-0.07180994749069215,-0.15134300291538239,1.2184696791468346e-07,0.0,0.0,0.0,1.2184696791468346e-07,0.0,0.0,0.0,1.2184696791468346e-07,-0.2353596,-0.7060787999999986,11.05209455,8.999999999999999e-08,0.0,0.0,0.0,8.999999999999999e-08,0.0,0.0,0.0,8.999999999999999e-08
1737286246.3881042,20732,1737286246,386034048,base_link,0.0071520432728329805,-0.002588897175110262,-0.6928810444643734,-0.7210117919357487,1.0,0.0,0.0,0.0,1.0,0.0,0.0,0.0,1.0,-0.09888018667697906,0.17965638637542727,0.16893357038497922,1.2184696791468346e-07,0.0,0.0,0.0,1.2184696791468346e-07,0.0,0.0,0.0,1.2184696791468346e-07,-0.3334261,-0.019613299999998873,9.218251,8.999999999999999e-08,0.0,0.0,0.0,8.999999999999999e-08,0.0,0.0,0.0,8.999999999999999e-08
1737286246.489034,20733,1737286246,487030720,base_link,0.007662181098011145,-0.001482985287058712,-0.6925116809521634,-0.7213644456724139,1.0,0.0,0.0,0.0,1.0,0.0,0.0,0.0,1.0,-0.13427568972110748,-0.019949901849031466,-0.1364831030368805,1.2184696791468346e-07,0.0,0.0,0.0,1.2184696791468346e-07,0.0,0.0,0.0,1.2184696791468346e-07,0.0196133,-0.8237585999999988,10.3754357,8.999999999999999e-08,0.0,0.0,0.0,8.999999999999999e-08,0.0,0.0,0.0,8.999999999999999e-08
1737286246.585076,20734,1737286246,584023296,base_link,0.003925381358237664,-0.0013872628547173446,-0.6922624712235778,-0.7216337975859981,1.0,0.0,0.0,0.0,1.0,0.0,0.0,0.0,1.0,0.0048406668938696384,0.17271149158477783,-0.025151725858449957,1.2184696791468346e-07,0.0,0.0,0.0,1.2184696791468346e-07,0.0,0.0,0.0,1.2184696791468346e-07,-0.1765197,0.049033250000001166,9.5320638,8.999999999999999e-08,0.0,0.0,0.0,8.999999999999999e-08,0.0,0.0,0.0,8.999999999999999e-08
1737286246.6839945,20735,1737286246,683017408,base_link,0.009290488176770207,-0.006478890490704375,-0.6922072040950555,-0.7216099343872374,1.0,0.0,0.0,0.0,1.0,0.0,0.0,0.0,1.0,-0.11654889583587646,0.42232242226600647,-0.042037297040224124,1.2184696791468346e-07,0.0,0.0,0.0,1.2184696791468346e-07,0.0,0.0,0.0,1.2184696791468346e-07,0.22555295,-0.08825984999999872,10.34601575,8.999999999999999e-08,0.0,0.0,0.0,8.999999999999999e-08,0.0,0.0,0.0,8.999999999999999e-08
1737286246.7860463,20736,1737286246,785011264,base_link,0.010915019545514168,-0.005322579873398753,-0.6920205168509919,-0.7217756831239871,1.0,0.0,0.0,0.0,1.0,0.0,0.0,0.0,1.0,-0.23694147169589996,0.2815275490283966,-0.07803273200988772,1.2184696791468346e-07,0.0,0.0,0.0,1.2184696791468346e-07,0.0,0.0,0.0,1.2184696791468346e-07,-0.1765197,-0.1274864499999986,11.26784085,8.999999999999999e-08,0.0,0.0,0.0,8.999999999999999e-08,0.0,0.0,0.0,8.999999999999999e-08
1737286246.8853028,20737,1737286246,884009216,base_link,0.009856079851859566,-0.0047371153514981085,-0.6925246274490388,-0.7213113459558711,1.0,0.0,0.0,0.0,1.0,0.0,0.0,0.0,1.0,-0.11057700961828232,0.34653621912002563,0.08246739953756328,1.2184696791468346e-07,0.0,0.0,0.0,1.2184696791468346e-07,0.0,0.0,0.0,1.2184696791468346e-07,-0.2745862,-0.3530393999999986,11.2188076,8.999999999999999e-08,0.0,0.0,0.0,8.999999999999999e-08,0.0,0.0,0.0,8.999999999999999e-08
1737286246.986382,20738,1737286246,983004096,base_link,0.010228317486774592,-0.003650109863735556,-0.6921360247908284,-0.7216853756354787,1.0,0.0,0.0,0.0,1.0,0.0,0.0,0.0,1.0,-0.020199358463287354,0.24514394998550415,0.03527719527482984,1.2184696791468346e-07,0.0,0.0,0.0,1.2184696791468346e-07,0.0,0.0,0.0,1.2184696791468346e-07,-0.2157463,-0.07845319999999874,10.28717585,8.999999999999999e-08,0.0,0.0,0.0,8.999999999999999e-08,0.0,0.0,0.0,8.999999999999999e-08
1737286247.0918643,20739,1737286247,89992576,base_link,0.007029184620300468,-0.0028206323038724272,-0.6895219228819582,-0.7242252083862776,1.0,0.0,0.0,0.0,1.0,0.0,0.0,0.0,1.0,0.22221232950687408,-0.39531755447387695,-0.11619154363870617,1.2184696791468346e-07,0.0,0.0,0.0,1.2184696791468346e-07,0.0,0.0,0.0,1.2184696791468346e-07,-0.0588399,-0.41187929999999867,11.09132115,8.999999999999999e-08,0.0,0.0,0.0,8.999999999999999e-08,0.0,0.0,0.0,8.999999999999999e-08
1737286247.1872141,20740,1737286247,184993856,base_link,0.00808543985757929,-0.0035117428623257893,-0.6884233787885379,-0.7252555031585431,1.0,0.0,0.0,0.0,1.0,0.0,0.0,0.0,1.0,0.10009052604436874,-0.23697954416275024,-0.06030465662479398,1.2184696791468346e-07,0.0,0.0,0.0,1.2184696791468346e-07,0.0,0.0,0.0,1.2184696791468346e-07,-0.2549729,-0.04903324999999891,8.8848249,8.999999999999999e-08,0.0,0.0,0.0,8.999999999999999e-08,0.0,0.0,0.0,8.999999999999999e-08
1737286247.2917266,20741,1737286247,283992064,base_link,0.00892875308548852,-0.00276546009695746,-0.6898135963262996,-0.7239266757912486,1.0,0.0,0.0,0.0,1.0,0.0,0.0,0.0,1.0,-0.3259924054145813,0.0948178619146347,-0.05399548634886743,1.2184696791468346e-07,0.0,0.0,0.0,1.2184696791468346e-07,0.0,0.0,0.0,1.2184696791468346e-07,-0.40207265000000003,-0.35303939999999867,10.64021525,8.999999999999999e-08,0.0,0.0,0.0,8.999999999999999e-08,0.0,0.0,0.0,8.999999999999999e-08
1737286247.385925,20742,1737286247,382992064,base_link,0.010465174889752042,-0.002052413907627733,-0.6935362914040626,-0.7203427519016056,1.0,0.0,0.0,0.0,1.0,0.0,0.0,0.0,1.0,-0.17801561951637268,0.21920166909694672,-0.008934081532061126,1.2184696791468346e-07,0.0,0.0,0.0,1.2184696791468346e-07,0.0,0.0,0.0,1.2184696791468346e-07,-0.196133,0.0490332500000013,10.60098865,8.999999999999999e-08,0.0,0.0,0.0,8.999999999999999e-08,0.0,0.0,0.0,8.999999999999999e-08
1737286247.486776,20743,1737286247,484986688,base_link,0.00730312237301413,-0.0005611942875086799,-0.6981448309010777,-0.7159190907851822,1.0,0.0,0.0,0.0,1.0,0.0,0.0,0.0,1.0,-0.2117127627134323,0.4079884886741638,0.10573899000883097,1.2184696791468346e-07,0.0,0.0,0.0,1.2184696791468346e-07,0.0,0.0,0.0,1.2184696791468346e-07,-0.24516625,-0.16671304999999864,11.2188076,8.999999999999999e-08,0.0,0.0,0.0,8.999999999999999e-08,0.0,0.0,0.0,8.999999999999999e-08
1737286247.586849,20744,1737286247,583984896,base_link,0.005811217606882358,0.0001586225457348402,-0.6994011935811365,-0.7147056562012752,1.0,0.0,0.0,0.0,1.0,0.0,0.0,0.0,1.0,0.18034720420837402,-0.10664817690849304,0.0077791595831513535,1.2184696791468346e-07,0.0,0.0,0.0,1.2184696791468346e-07,0.0,0.0,0.0,1.2184696791468346e-07,-0.196133,-0.3824593499999987,10.787315,8.999999999999999e-08,0.0,0.0,0.0,8.999999999999999e-08,0.0,0.0,0.0,8.999999999999999e-08
1737286247.6860392,20745,1737286247,682980544,base_link,0.006668900081389975,0.0016854462045474267,-0.6962443975889634,-0.7177718466677118,1.0,0.0,0.0,0.0,1.0,0.0,0.0,0.0,1.0,-0.032863765954971313,0.27901193499565125,-0.05528483539819721,1.2184696791468346e-07,0.0,0.0,0.0,1.2184696791468346e-07,0.0,0.0,0.0,1.2184696791468346e-07,-0.40207265000000003,0.03922660000000119,9.69877685,8.999999999999999e-08,0.0,0.0,0.0,8.999999999999999e-08,0.0,0.0,0.0,8.999999999999999e-08
1737286247.7875323,20746,1737286247,783974912,base_link,0.004901585484700701,0.000250767658087673,-0.6911563326178554,-0.7226886158350317,1.0,0.0,0.0,0.0,1.0,0.0,0.0,0.0,1.0,0.2918756902217865,-0.13020588457584384,-0.12011408805847167,1.2184696791468346e-07,0.0,0.0,0.0,1.2184696791468346e-07,0.0,0.0,0.0,1.2184696791468346e-07,-0.10787315,-0.3824593499999987,10.983448,8.999999999999999e-08,0.0,0.0,0.0,8.999999999999999e-08,0.0,0.0,0.0,8.999999999999999e-08
1737286247.887597,20747,1737286247,882968256,base_link,0.0019913165933490985,0.000609732233954568,-0.6887040543517824,-0.7250395771295831,1.0,0.0,0.0,0.0,1.0,0.0,0.0,0.0,1.0,0.26575350761413574,-0.4323190152645111,-0.12815497815608973,1.2184696791468346e-07,0.0,0.0,0.0,1.2184696791468346e-07,0.0,0.0,0.0,1.2184696791468346e-07,-0.40207265000000003,-0.05883989999999881,9.77723005,8.999999999999999e-08,0.0,0.0,0.0,8.999999999999999e-08,0.0,0.0,0.0,8.999999999999999e-08
1737286247.985644,20748,1737286247,982962624,base_link,0.0015331794491799757,0.00045454421850741537,-0.688353789817115,-0.7253733540699886,1.0,0.0,0.0,0.0,1.0,0.0,0.0,0.0,1.0,0.3413201570510864,-0.26000556349754333,-0.05677677318453785,1.2184696791468346e-07,0.0,0.0,0.0,1.2184696791468346e-07,0.0,0.0,0.0,1.2184696791468346e-07,-0.0392266,-0.3138127999999987,10.6107953,8.999999999999999e-08,0.0,0.0,0.0,8.999999999999999e-08,0.0,0.0,0.0,8.999999999999999e-08
1737286248.0887399,20749,1737286248,84958528,base_link,0.004832186806116374,0.00041250955805670884,-0.6908174458947174,-0.7230129571826734,1.0,0.0,0.0,0.0,1.0,0.0,0.0,0.0,1.0,0.3146965801715851,-0.17764779925346375,-0.02478402294218538,1.2184696791468346e-07,0.0,0.0,0.0,1.2184696791468346e-07,0.0,0.0,0.0,1.2184696791468346e-07,-0.1765197,-0.11767979999999877,10.14988275,8.999999999999999e-08,0.0,0.0,0.0,8.999999999999999e-08,0.0,0.0,0.0,8.999999999999999e-08
1737286248.1866577,20750,1737286248,183952128,base_link,0.007190292636801859,-0.0009020924982892282,-0.6944752440822379,-0.7194801048519949,1.0,0.0,0.0,0.0,1.0,0.0,0.0,0.0,1.0,0.25355079770088196,-0.23911064863204956,0.08219370990991595,1.2184696791468346e-07,0.0,0.0,0.0,1.2184696791468346e-07,0.0,0.0,0.0,1.2184696791468346e-07,0.1765197,-0.4412992499999988,9.414384,8.999999999999999e-08,0.0,0.0,0.0,8.999999999999999e-08,0.0,0.0,0.0,8.999999999999999e-08
1737286248.2903905,20751,1737286248,282945984,base_link,0.006819048737133078,0.0005754338987026629,-0.6966945312632681,-0.7173352769507464,1.0,0.0,0.0,0.0,1.0,0.0,0.0,0.0,1.0,0.14104706048965454,-0.38736262917518616,-0.09536002576351162,1.2184696791468346e-07,0.0,0.0,0.0,1.2184696791468346e-07,0.0,0.0,0.0,1.2184696791468346e-07,-0.30400615,-0.35303939999999884,9.93413645,8.999999999999999e-08,0.0,0.0,0.0,8.999999999999999e-08,0.0,0.0,0.0,8.999999999999999e-08
1737286248.3898559,20752,1737286248,382941376,base_link,0.007689104393476006,0.0012098403478261685,-0.6972751308064399,-0.7167613312106207,1.0,0.0,0.0,0.0,1.0,0.0,0.0,0.0,1.0,0.07074841111898422,0.08404697477817533,-0.1918085366487503,1.2184696791468346e-07,0.0,0.0,0.0,1.2184696791468346e-07,0.0,0.0,0.0,1.2184696791468346e-07,-0.06864655,-0.48052584999999876,10.3362091,8.999999999999999e-08,0.0,0.0,0.0,8.999999999999999e-08,0.0,0.0,0.0,8.999999999999999e-08
1737286248.4912539,20753,1737286248,484938560,base_link,0.007482664284506257,0.0018789635396201064,-0.6930157047954901,-0.7208812052883834,1.0,0.0,0.0,0.0,1.0,0.0,0.0,0.0,1.0,0.23117101192474365,-0.27880328893661505,-0.22916692495346067,1.2184696791468346e-07,0.0,0.0,0.0,1.2184696791468346e-07,0.0,0.0,0.0,1.2184696791468346e-07,-0.10787315,0.19613300000000122,10.0812362,8.999999999999999e-08,0.0,0.0,0.0,8.999999999999999e-08,0.0,0.0,0.0,8.999999999999999e-08
1737286248.5868783,20754,1737286248,583933952,base_link,0.010540409294289647,4.631334005736229e-05,-0.6896462817047827,-0.724069681562314,1.0,0.0,0.0,0.0,1.0,0.0,0.0,0.0,1.0,-0.1104133352637291,0.10486109554767607,-0.08816610276699068,1.2184696791468346e-07,0.0,0.0,0.0,1.2184696791468346e-07,0.0,0.0,0.0,1.2184696791468346e-07,-0.3530394,0.12748645000000114,9.3555441,8.999999999999999e-08,0.0,0.0,0.0,8.999999999999999e-08,0.0,0.0,0.0,8.999999999999999e-08
1737286248.6887825,20755,1737286248,685929088,base_link,0.010253155195953668,-0.0021879181890724123,-0.6870107328422121,-0.726571633620617,1.0,0.0,0.0,0.0,1.0,0.0,0.0,0.0,1.0,-0.011407595127820969,0.20729142427444458,0.010099619626998875,1.2184696791468346e-07,0.0,0.0,0.0,1.2184696791468346e-07,0.0,0.0,0.0,1.2184696791468346e-07,-0.0980665,-0.16671304999999886,9.4928372,8.999999999999999e-08,0.0,0.0,0.0,8.999999999999999e-08,0.0,0.0,0.0,8.999999999999999e-08
1737286248.7901182,20756,1737286248,784923200,base_link,0.011289928113534338,-0.004735324634481543,-0.6868662863874405,-0.7266806856165393,1.0,0.0,0.0,0.0,1.0,0.0,0.0,0.0,1.0,-0.3544278144836426,0.2584739923477173,0.10154688358306882,1.2184696791468346e-07,0.0,0.0,0.0,1.2184696791468346e-07,0.0,0.0,0.0,1.2184696791468346e-07,-0.36284605000000003,0.39226600000000106,8.5121722,8.999999999999999e-08,0.0,0.0,0.0,8.999999999999999e-08,0.0,0.0,0.0,8.999999999999999e-08
1737286248.8870857,20757,1737286248,883920896,base_link,0.007715618525655306,-0.0033318568305472887,-0.6882164862433743,-0.7254567085799473,1.0,0.0,0.0,0.0,1.0,0.0,0.0,0.0,1.0,-0.17421796917915344,0.22061169147491455,-0.0033991436939686806,1.2184696791468346e-07,0.0,0.0,0.0,1.2184696791468346e-07,0.0,0.0,0.0,1.2184696791468346e-07,-0.1176798,-0.13729309999999872,10.5127288,8.999999999999999e-08,0.0,0.0,0.0,8.999999999999999e-08,0.0,0.0,0.0,8.999999999999999e-08
1737286248.9876754,20758,1737286248,983916800,base_link,0.0038840613008371463,-0.0031298284344507283,-0.6918625769165053,-0.7220119755961358,1.0,0.0,0.0,0.0,1.0,0.0,0.0,0.0,1.0,-0.20086367428302765,0.1933829635381699,0.1302826106548309,1.2184696791468346e-07,0.0,0.0,0.0,1.2184696791468346e-07,0.0,0.0,0.0,1.2184696791468346e-07,-0.2941995,-0.29419949999999884,9.639936950000001,8.999999999999999e-08,0.0,0.0,0.0,8.999999999999999e-08,0.0,0.0,0.0,8.999999999999999e-08
1737286249.0875301,20759,1737286249,82910400,base_link,0.005983089883258793,-0.0005427413684052034,-0.692492649581317,-0.7213999156799946,1.0,0.0,0.0,0.0,1.0,0.0,0.0,0.0,1.0,0.22550474107265472,-0.3080162405967713,-0.24007037281990048,1.2184696791468346e-07,0.0,0.0,0.0,1.2184696791468346e-07,0.0,0.0,0.0,1.2184696791468346e-07,-0.1569064,-0.6374322499999987,10.24794925,8.999999999999999e-08,0.0,0.0,0.0,8.999999999999999e-08,0.0,0.0,0.0,8.999999999999999e-08
1737286249.1882622,20760,1737286249,184905280,base_link,0.010376676256682678,-0.0020934379339281085,-0.6928318324075184,-0.7210214935148059,1.0,0.0,0.0,0.0,1.0,0.0,0.0,0.0,1.0,-0.03485708311200142,-0.18556649982929233,-0.17575830221176145,1.2184696791468346e-07,0.0,0.0,0.0,1.2184696791468346e-07,0.0,0.0,0.0,1.2184696791468346e-07,-0.4118793,0.29419950000000106,8.924051500000001,8.999999999999999e-08,0.0,0.0,0.0,8.999999999999999e-08,0.0,0.0,0.0,8.999999999999999e-08
1737286249.2901316,20761,1737286249,283900160,base_link,0.011894604026126153,-0.0023379366630070673,-0.6926572841538169,-0.7211649874722703,1.0,0.0,0.0,0.0,1.0,0.0,0.0,0.0,1.0,-0.027117405086755753,-0.07697378844022752,-0.08940741419792174,1.2184696791468346e-07,0.0,0.0,0.0,1.2184696791468346e-07,0.0,0.0,0.0,1.2184696791468346e-07,-0.2157463,0.3824593500000012,9.551677100000001,8.999999999999999e-08,0.0,0.0,0.0,8.999999999999999e-08,0.0,0.0,0.0,8.999999999999999e-08
1737286249.3861933,20762,1737286249,382894272,base_link,0.012948077088126723,-0.005068875889712126,-0.6921174764958458,-0.721650921516738,1.0,0.0,0.0,0.0,1.0,0.0,0.0,0.0,1.0,-0.14830701053142548,0.3783622682094574,-0.020058434456586883,1.2184696791468346e-07,0.0,0.0,0.0,1.2184696791468346e-07,0.0,0.0,0.0,1.2184696791468346e-07,-0.18632635,-0.2549728999999987,10.22833595,8.999999999999999e-08,0.0,0.0,0.0,8.999999999999999e-08,0.0,0.0,0.0,8.999999999999999e-08
1737286249.488782,20763,1737286249,484888896,base_link,0.008900589659667495,-0.0033466709976088787,-0.6914275554780778,-0.7223832188129465,1.0,0.0,0.0,0.0,1.0,0.0,0.0,0.0,1.0,0.0190352201461792,0.15954767167568207,0.08736775815486907,1.2184696791468346e-07,0.0,0.0,0.0,1.2184696791468346e-07,0.0,0.0,0.0,1.2184696791468346e-07,-0.36284605000000003,-0.3432327499999986,11.4933938,8.999999999999999e-08,0.0,0.0,0.0,8.999999999999999e-08,0.0,0.0,0.0,8.999999999999999e-08
1737286249.5863395,20764,1737286249,583883264,base_link,0.009529757345500147,-0.004185988560956885,-0.6908331247956346,-0.7229393162014377,1.0,0.0,0.0,0.0,1.0,0.0,0.0,0.0,1.0,-0.07583829760551453,0.08714751899242401,-0.02151828631758691,1.2184696791468346e-07,0.0,0.0,0.0,1.2184696791468346e-07,0.0,0.0,0.0,1.2184696791468346e-07,-0.1372931,-0.6668521999999986,11.2972608,8.999999999999999e-08,0.0,0.0,0.0,8.999999999999999e-08,0.0,0.0,0.0,8.999999999999999e-08
1737286249.6886346,20765,1737286249,685878912,base_link,0.00923002310719562,-0.0021725427912214963,-0.6884815196728146,-0.7251918944667493,1.0,0.0,0.0,0.0,1.0,0.0,0.0,0.0,1.0,0.010460171848535538,-0.1924908757209778,-0.19089795649051663,1.2184696791468346e-07,0.0,0.0,0.0,1.2184696791468346e-07,0.0,0.0,0.0,1.2184696791468346e-07,-0.2157463,-0.46091254999999876,10.32640245,8.999999999999999e-08,0.0,0.0,0.0,8.999999999999999e-08,0.0,0.0,0.0,8.999999999999999e-08
1737286249.787144,20766,1737286249,784872512,base_link,0.007062256039132469,-0.0026580498978912986,-0.6870192929807601,-0.726599993381912,1.0,0.0,0.0,0.0,1.0,0.0,0.0,0.0,1.0,0.43424996733665466,-0.39745691418647766,-0.1329070627689361,1.2184696791468346e-07,0.0,0.0,0.0,1.2184696791468346e-07,0.0,0.0,0.0,1.2184696791468346e-07,-0.3334261,0.2843928500000011,8.8652116,8.999999999999999e-08,0.0,0.0,0.0,8.999999999999999e-08,0.0,0.0,0.0,8.999999999999999e-08
1737286249.885933,20767,1737286249,883869440,base_link,0.008856452318017094,-0.0045906446957553046,-0.6890159855145914,-0.7246774875342635,1.0,0.0,0.0,0.0,1.0,0.0,0.0,0.0,1.0,0.23529592156410217,-0.14597487449645996,0.11118302494287492,1.2184696791468346e-07,0.0,0.0,0.0,1.2184696791468346e-07,0.0,0.0,0.0,1.2184696791468346e-07,-0.4903325,1.098885951756543e-15,8.97308475,8.999999999999999e-08,0.0,0.0,0.0,8.999999999999999e-08,0.0,0.0,0.0,8.999999999999999e-08
1737286249.9868913,20768,1737286249,983878144,base_link,0.007534035584771007,-0.003977084785405853,-0.6903877203728752,-0.7233893949062024,1.0,0.0,0.0,0.0,1.0,0.0,0.0,0.0,1.0,0.11683724075555801,-0.25217145681381226,-0.014303337782621352,1.2184696791468346e-07,0.0,0.0,0.0,1.2184696791468346e-07,0.0,0.0,0.0,1.2184696791468346e-07,-0.0784532,-0.1569063999999988,9.80665,8.999999999999999e-08,0.0,0.0,0.0,8.999999999999999e-08,0.0,0.0,0.0,8.999999999999999e-08
1737286250.086336,20769,1737286250,82867392,base_link,0.008076538561093489,-0.003467843075796847,-0.691987304803046,-0.7218561585112987,1.0,0.0,0.0,0.0,1.0,0.0,0.0,0.0,1.0,-0.13386794924736023,0.32066088914871216,0.11817761510610576,1.2184696791468346e-07,0.0,0.0,0.0,1.2184696791468346e-07,0.0,0.0,0.0,1.2184696791468346e-07,-0.26477955,-0.019613299999998956,8.52197885,8.999999999999999e-08,0.0,0.0,0.0,8.999999999999999e-08,0.0,0.0,0.0,8.999999999999999e-08
1737286250.18665,20770,1737286250,183857408,base_link,0.010034046810411172,-0.003047127683250081,-0.6934380986385641,-0.7204398908125655,1.0,0.0,0.0,0.0,1.0,0.0,0.0,0.0,1.0,-0.1711401790380478,0.302592396736145,0.2112109065055847,1.2184696791468346e-07,0.0,0.0,0.0,1.2184696791468346e-07,0.0,0.0,0.0,1.2184696791468346e-07,-0.24516625,0.049033250000001034,8.48275225,8.999999999999999e-08,0.0,0.0,0.0,8.999999999999999e-08,0.0,0.0,0.0,8.999999999999999e-08
1737286250.286141,20771,1737286250,282850496,base_link,0.016228772730113698,-0.0002465596129035606,-0.6955749708632867,-0.7182701623014625,1.0,0.0,0.0,0.0,1.0,0.0,0.0,0.0,1.0,-0.3852187991142273,0.15528346598148346,-0.08993740379810335,1.2184696791468346e-07,0.0,0.0,0.0,1.2184696791468346e-07,0.0,0.0,0.0,1.2184696791468346e-07,0.0,-0.6864654999999987,10.14988275,8.999999999999999e-08,0.0,0.0,0.0,8.999999999999999e-08,0.0,0.0,0.0,8.999999999999999e-08
1737286250.385276,20772,1737286250,382841536,base_link,0.014320627025013901,-8.412795417321757e-05,-0.6958307873171248,-0.7180629693736672,1.0,0.0,0.0,0.0,1.0,0.0,0.0,0.0,1.0,0.18103960156440735,-0.11936292797327042,0.037768308073282256,1.2184696791468346e-07,0.0,0.0,0.0,1.2184696791468346e-07,0.0,0.0,0.0,1.2184696791468346e-07,-0.4707192,0.04903325000000114,9.32612415,8.999999999999999e-08,0.0,0.0,0.0,8.999999999999999e-08,0.0,0.0,0.0,8.999999999999999e-08
1737286250.5012453,20773,1737286250,484836928,base_link,0.01380787863236551,-0.00010596692728742817,-0.6935918372820863,-0.720235860336282,1.0,0.0,0.0,0.0,1.0,0.0,0.0,0.0,1.0,-0.25495070219039917,0.3154100775718689,0.018710685893893204,1.2184696791468346e-07,0.0,0.0,0.0,1.2184696791468346e-07,0.0,0.0,0.0,1.2184696791468346e-07,-0.4314926,-0.2843928499999988,9.58109705,8.999999999999999e-08,0.0,0.0,0.0,8.999999999999999e-08,0.0,0.0,0.0,8.999999999999999e-08
1737286250.5866244,20774,1737286250,583833856,base_link,0.007716574709016311,0.0003607512084157594,-0.6874587703660354,-0.7261823210324967,1.0,0.0,0.0,0.0,1.0,0.0,0.0,0.0,1.0,0.0633191466331482,-0.39071556925773626,-0.25599762797355646,1.2184696791468346e-07,0.0,0.0,0.0,1.2184696791468346e-07,0.0,0.0,0.0,1.2184696791468346e-07,-0.2549729,-0.9904716499999987,10.4931155,8.999999999999999e-08,0.0,0.0,0.0,8.999999999999999e-08,0.0,0.0,0.0,8.999999999999999e-08
1737286250.685407,20775,1737286250,682833856,base_link,0.009360040920917639,-0.0001998967535902332,-0.6824988501035719,-0.7308267026337698,1.0,0.0,0.0,0.0,1.0,0.0,0.0,0.0,1.0,-0.06765727698802948,0.37821027636528015,-0.10349692404270176,1.2184696791468346e-07,0.0,0.0,0.0,1.2184696791468346e-07,0.0,0.0,0.0,1.2184696791468346e-07,-0.26477955,0.225552950000001,8.1199062,8.999999999999999e-08,0.0,0.0,0.0,8.999999999999999e-08,0.0,0.0,0.0,8.999999999999999e-08
1737286250.7862341,20776,1737286250,783833344,base_link,0.009000966460960092,-0.0024274103366940915,-0.6808018752479369,-0.7324082856854628,1.0,0.0,0.0,0.0,1.0,0.0,0.0,0.0,1.0,-0.15320777893066406,0.20493292808532715,0.02653366699814794,1.2184696791468346e-07,0.0,0.0,0.0,1.2184696791468346e-07,0.0,0.0,0.0,1.2184696791468346e-07,-0.16671305,-0.10787314999999893,8.62004535,8.999999999999999e-08,0.0,0.0,0.0,8.999999999999999e-08,0.0,0.0,0.0,8.999999999999999e-08
1737286250.8853679,20777,1737286250,882828992,base_link,0.009526823148151314,-0.0024120808306616263,-0.6810357953263828,-0.7321841755944548,1.0,0.0,0.0,0.0,1.0,0.0,0.0,0.0,1.0,0.01808757707476616,0.25466614961624146,0.05536373332142827,1.2184696791468346e-07,0.0,0.0,0.0,1.2184696791468346e-07,0.0,0.0,0.0,1.2184696791468346e-07,0.06864655,-0.48052584999999876,10.3362091,8.999999999999999e-08,0.0,0.0,0.0,8.999999999999999e-08,0.0,0.0,0.0,8.999999999999999e-08
1737286250.9865746,20778,1737286250,983827456,base_link,0.006725399028031638,-0.0024639145703424323,-0.6817511203485734,-0.7315491152590976,1.0,0.0,0.0,0.0,1.0,0.0,0.0,0.0,1.0,0.11652453988790512,-0.37502628564834595,-0.18282739818096155,1.2184696791468346e-07,0.0,0.0,0.0,1.2184696791468346e-07,0.0,0.0,0.0,1.2184696791468346e-07,-0.08825985,-0.1176797999999988,9.8654899,8.999999999999999e-08,0.0,0.0,0.0,8.999999999999999e-08,0.0,0.0,0.0,8.999999999999999e-08
1737286251.0892255,20779,1737286251,86818752,base_link,0.00828255381854582,-0.0031133668245842227,-0.6828713279843657,-0.7304850824391468,1.0,0.0,0.0,0.0,1.0,0.0,0.0,0.0,1.0,0.010432228446006775,-0.04697937145829202,-0.13424070179462433,1.2184696791468346e-07,0.0,0.0,0.0,1.2184696791468346e-07,0.0,0.0,0.0,1.2184696791468346e-07,-0.4511059,0.32361945000000103,8.7671451,8.999999999999999e-08,0.0,0.0,0.0,8.999999999999999e-08,0.0,0.0,0.0,8.999999999999999e-08
1737286251.186667,20780,1737286251,183812096,base_link,0.005402087412511943,-0.003018351809788477,-0.6836331624860771,-0.7297995657392684,1.0,0.0,0.0,0.0,1.0,0.0,0.0,0.0,1.0,-0.17431582510471344,0.14884477853775027,0.12536111474037168,1.2184696791468346e-07,0.0,0.0,0.0,1.2184696791468346e-07,0.0,0.0,0.0,1.2184696791468346e-07,-0.18632635,-0.10787314999999878,9.9831697,8.999999999999999e-08,0.0,0.0,0.0,8.999999999999999e-08,0.0,0.0,0.0,8.999999999999999e-08
1737286251.2917714,20781,1737286251,287807488,base_link,0.00752296182188362,-0.0036225241494964003,-0.6847729229343301,-0.7287086704439483,1.0,0.0,0.0,0.0,1.0,0.0,0.0,0.0,1.0,0.1384301483631134,-0.2795020341873169,0.07448966056108478,1.2184696791468346e-07,0.0,0.0,0.0,1.2184696791468346e-07,0.0,0.0,0.0,1.2184696791468346e-07,0.08825985,-0.7551120499999987,9.99297635,8.999999999999999e-08,0.0,0.0,0.0,8.999999999999999e-08,0.0,0.0,0.0,8.999999999999999e-08
1737286251.3893063,20782,1737286251,386801088,base_link,0.004186433125241117,-0.002185097601388786,-0.6861805232270862,-0.7274159667411504,1.0,0.0,0.0,0.0,1.0,0.0,0.0,0.0,1.0,0.008720451965928078,0.03791257739067079,0.1141926571726799,1.2184696791468346e-07,0.0,0.0,0.0,1.2184696791468346e-07,0.0,0.0,0.0,1.2184696791468346e-07,-0.2941995,-0.15690639999999884,9.4928372,8.999999999999999e-08,0.0,0.0,0.0,8.999999999999999e-08,0.0,0.0,0.0,8.999999999999999e-08
1737286251.4884648,20783,1737286251,485796480,base_link,0.006169444054123097,-0.0028065821627042673,-0.6890235010782736,-0.7247073036878167,1.0,0.0,0.0,0.0,1.0,0.0,0.0,0.0,1.0,-0.3214262127876282,0.26472675800323486,0.11472733318805692,1.2184696791468346e-07,0.0,0.0,0.0,1.2184696791468346e-07,0.0,0.0,0.0,1.2184696791468346e-07,-0.1569064,0.04903325000000115,9.38496405,8.999999999999999e-08,0.0,0.0,0.0,8.999999999999999e-08,0.0,0.0,0.0,8.999999999999999e-08
1737286251.5873559,20784,1737286251,584793664,base_link,0.008347454037750734,-0.0020344776694257633,-0.6918344049141928,-0.7220050810684957,1.0,0.0,0.0,0.0,1.0,0.0,0.0,0.0,1.0,-0.19897185266017914,0.21664191782474515,-0.12732584774494174,1.2184696791468346e-07,0.0,0.0,0.0,1.2184696791468346e-07,0.0,0.0,0.0,1.2184696791468346e-07,-0.48052585000000003,-0.09806649999999884,9.60071035,8.999999999999999e-08,0.0,0.0,0.0,8.999999999999999e-08,0.0,0.0,0.0,8.999999999999999e-08
1737286251.6855779,20785,1737286251,682787264,base_link,0.004805256611268146,-0.0015003503914200226,-0.6938451963563765,-0.7201065906869512,1.0,0.0,0.0,0.0,1.0,0.0,0.0,0.0,1.0,0.2167036086320877,-0.2970295250415802,-0.01678673923015591,1.2184696791468346e-07,0.0,0.0,0.0,1.2184696791468346e-07,0.0,0.0,0.0,1.2184696791468346e-07,0.04903325,-0.16671304999999886,9.3751574,8.999999999999999e-08,0.0,0.0,0.0,8.999999999999999e-08,0.0,0.0,0.0,8.999999999999999e-08
1737286251.7845557,20786,1737286251,782780864,base_link,0.0110675313658988,-0.0006668923071575239,-0.6933877421307482,-0.7204793571414373,1.0,0.0,0.0,0.0,1.0,0.0,0.0,0.0,1.0,0.09911758452653885,-0.13806897401809692,0.0367071107029915,1.2184696791468346e-07,0.0,0.0,0.0,1.2184696791468346e-07,0.0,0.0,0.0,1.2184696791468346e-07,0.20593965,0.25497290000000117,9.48303055,8.999999999999999e-08,0.0,0.0,0.0,8.999999999999999e-08,0.0,0.0,0.0,8.999999999999999e-08
1737286251.8867216,20787,1737286251,883777536,base_link,0.011261174793975768,-0.00040337672064071593,-0.6942203860128566,-0.7196742866558742,1.0,0.0,0.0,0.0,1.0,0.0,0.0,0.0,1.0,-0.023824818432331085,0.21782143414020538,0.041944298893213244,1.2184696791468346e-07,0.0,0.0,0.0,1.2184696791468346e-07,0.0,0.0,0.0,1.2184696791468346e-07,-0.32361945000000003,-0.8825984999999986,11.346294050000001,8.999999999999999e-08,0.0,0.0,0.0,8.999999999999999e-08,0.0,0.0,0.0,8.999999999999999e-08
1737286251.9879274,20788,1737286251,984774976,base_link,0.01319752839251163,-0.00066709672516572,-0.6919868648015917,-0.7217891376076201,1.0,0.0,0.0,0.0,1.0,0.0,0.0,0.0,1.0,-0.05566554144024849,-0.021289655938744573,-0.21606267988681793,1.2184696791468346e-07,0.0,0.0,0.0,1.2184696791468346e-07,0.0,0.0,0.0,1.2184696791468346e-07,-0.196133,-0.46091254999999876,10.32640245,8.999999999999999e-08,0.0,0.0,0.0,8.999999999999999e-08,0.0,0.0,0.0,8.999999999999999e-08
1737286252.0866005,20789,1737286252,83766784,base_link,0.0035658347180495763,0.0009058520252122209,-0.6878760940637856,-0.7258188089808794,1.0,0.0,0.0,0.0,1.0,0.0,0.0,0.0,1.0,0.13596941530704498,-0.11891098320484163,-0.14498636126518247,1.2184696791468346e-07,0.0,0.0,0.0,1.2184696791468346e-07,0.0,0.0,0.0,1.2184696791468346e-07,-0.26477955,-0.7747253499999988,10.56176205,8.999999999999999e-08,0.0,0.0,0.0,8.999999999999999e-08,0.0,0.0,0.0,8.999999999999999e-08
1737286252.1854637,20790,1737286252,182761664,base_link,0.003265907274862031,-0.001642830280759285,-0.6866640887487824,-0.7269656554343848,1.0,0.0,0.0,0.0,1.0,0.0,0.0,0.0,1.0,-0.0700836256146431,0.25186875462532043,0.18294353783130643,1.2184696791468346e-07,0.0,0.0,0.0,1.2184696791468346e-07,0.0,0.0,0.0,1.2184696791468346e-07,-0.1569064,0.294199500000001,8.32584585,8.999999999999999e-08,0.0,0.0,0.0,8.999999999999999e-08,0.0,0.0,0.0,8.999999999999999e-08
1737286252.2908726,20791,1737286252,287757568,base_link,0.004641684964762949,-0.003314683625915173,-0.6860990123526123,-0.7274858162754226,1.0,0.0,0.0,0.0,1.0,0.0,0.0,0.0,1.0,-0.00950024276971817,-0.24172039330005646,-0.06253945082426068,1.2184696791468346e-07,0.0,0.0,0.0,1.2184696791468346e-07,0.0,0.0,0.0,1.2184696791468346e-07,-0.1569064,-0.8041452999999987,10.7088618,8.999999999999999e-08,0.0,0.0,0.0,8.999999999999999e-08,0.0,0.0,0.0,8.999999999999999e-08
1737286252.385741,20792,1737286252,383755264,base_link,0.010557161726678133,-0.004540790094093946,-0.6860453262279702,-0.7274680322339642,1.0,0.0,0.0,0.0,1.0,0.0,0.0,0.0,1.0,-0.2433631718158722,0.2947447597980499,0.0527575425803661,1.2184696791468346e-07,0.0,0.0,0.0,1.2184696791468346e-07,0.0,0.0,0.0,1.2184696791468346e-07,-0.36284605000000003,-0.009806649999998947,8.60043205,8.999999999999999e-08,0.0,0.0,0.0,8.999999999999999e-08,0.0,0.0,0.0,8.999999999999999e-08
1737286252.4868383,20793,1737286252,485749376,base_link,0.01179812909055414,-0.001065855824174251,-0.6879698369514597,-0.7256425921528494,1.0,0.0,0.0,0.0,1.0,0.0,0.0,0.0,1.0,-0.502792477607727,0.2481844276189804,0.11185209453105924,1.2184696791468346e-07,0.0,0.0,0.0,1.2184696791468346e-07,0.0,0.0,0.0,1.2184696791468346e-07,-0.24516625,-0.3432327499999987,10.81673495,8.999999999999999e-08,0.0,0.0,0.0,8.999999999999999e-08,0.0,0.0,0.0,8.999999999999999e-08
1737286252.5848856,20794,1737286252,582745024,base_link,0.01651626074137687,-0.0012513256478841519,-0.6938610665455157,-0.719918375684053,1.0,0.0,0.0,0.0,1.0,0.0,0.0,0.0,1.0,-0.18022392690181732,0.2605033814907074,0.18934975564479825,1.2184696791468346e-07,0.0,0.0,0.0,1.2184696791468346e-07,0.0,0.0,0.0,1.2184696791468346e-07,0.36284605000000003,-0.5099457999999988,10.36562905,8.999999999999999e-08,0.0,0.0,0.0,8.999999999999999e-08,0.0,0.0,0.0,8.999999999999999e-08
1737286252.6847475,20795,1737286252,682738880,base_link,0.013245745196059292,-6.597149327006731e-05,-0.7013739335868856,-0.7126704365741728,1.0,0.0,0.0,0.0,1.0,0.0,0.0,0.0,1.0,0.22650884091854095,-0.10308497399091718,0.21282607316970825,1.2184696791468346e-07,0.0,0.0,0.0,1.2184696791468346e-07,0.0,0.0,0.0,1.2184696791468346e-07,-0.2745862,-0.5197524499999986,11.2188076,8.999999999999999e-08,0.0,0.0,0.0,8.999999999999999e-08,0.0,0.0,0.0,8.999999999999999e-08
1737286252.78582,20796,1737286252,783741184,base_link,0.014604099742351852,-0.0017361067013589332,-0.7053693898442579,-0.7086873288517131,1.0,0.0,0.0,0.0,1.0,0.0,0.0,0.0,1.0,0.06212786212563515,0.3532370924949646,-0.036087367683649105,1.2184696791468346e-07,0.0,0.0,0.0,1.2184696791468346e-07,0.0,0.0,0.0,1.2184696791468346e-07,-0.20593965,-0.3334260999999987,10.0223963,8.999999999999999e-08,0.0,0.0,0.0,8.999999999999999e-08,0.0,0.0,0.0,8.999999999999999e-08
1737286252.8900328,20797,1737286252,888740160,base_link,0.01552099576079811,-0.0022609780492449396,-0.7031955649172733,-0.7108234549798782,1.0,0.0,0.0,0.0,1.0,0.0,0.0,0.0,1.0,0.07528583705425262,-0.02651599422097205,0.09208095818758011,1.2184696791468346e-07,0.0,0.0,0.0,1.2184696791468346e-07,0.0,0.0,0.0,1.2184696791468346e-07,-0.44129925000000003,0.039226600000001284,10.44408225,8.999999999999999e-08,0.0,0.0,0.0,8.999999999999999e-08,0.0,0.0,0.0,8.999999999999999e-08
1737286252.9839582,20798,1737286252,982734272,base_link,0.016671108137393458,-0.0015090231508239694,-0.6974756027422556,-0.7164129958214946,1.0,0.0,0.0,0.0,1.0,0.0,0.0,0.0,1.0,0.11301067471504211,-0.05776765197515492,-0.34762364625930786,1.2184696791468346e-07,0.0,0.0,0.0,1.2184696791468346e-07,0.0,0.0,0.0,1.2184696791468346e-07,-0.38245935,0.05883990000000116,9.463417250000001,8.999999999999999e-08,0.0,0.0,0.0,8.999999999999999e-08,0.0,0.0,0.0,8.999999999999999e-08
1737286253.087931,20799,1737286253,85727872,base_link,0.011877087900244691,-0.0006875770400419827,-0.6938922220850046,-0.7199805873429911,1.0,0.0,0.0,0.0,1.0,0.0,0.0,0.0,1.0,0.13383515179157257,-0.39927154779434204,-0.14201085269451136,1.2184696791468346e-07,0.0,0.0,0.0,1.2184696791468346e-07,0.0,0.0,0.0,1.2184696791468346e-07,-0.4707192,0.0588399000000012,9.81645665,8.999999999999999e-08,0.0,0.0,0.0,8.999999999999999e-08,0.0,0.0,0.0,8.999999999999999e-08
1737286253.1846802,20800,1737286253,182719168,base_link,0.011131020964612395,-0.0017797675483607726,-0.6918505540456621,-0.721952729523526,1.0,0.0,0.0,0.0,1.0,0.0,0.0,0.0,1.0,-0.2453327775001526,0.1867304444313049,-0.1762993633747101,1.2184696791468346e-07,0.0,0.0,0.0,1.2184696791468346e-07,0.0,0.0,0.0,1.2184696791468346e-07,-0.22555295,-0.19613299999999864,11.1403544,8.999999999999999e-08,0.0,0.0,0.0,8.999999999999999e-08,0.0,0.0,0.0,8.999999999999999e-08
1737286253.2884574,20801,1737286253,283714048,base_link,0.012775204439761694,-0.002684661317456146,-0.6923673665072808,-0.721427069453944,1.0,0.0,0.0,0.0,1.0,0.0,0.0,0.0,1.0,-0.29680487513542175,0.4886503517627716,0.0073083415627478955,1.2184696791468346e-07,0.0,0.0,0.0,1.2184696791468346e-07,0.0,0.0,0.0,1.2184696791468346e-07,-0.12748645,-0.01961329999999875,10.20872265,8.999999999999999e-08,0.0,0.0,0.0,8.999999999999999e-08,0.0,0.0,0.0,8.999999999999999e-08
1737286253.3850079,20802,1737286253,383707392,base_link,0.018903193328272182,-0.00813652904517191,-0.6962588284418796,-0.7174957212372994,1.0,0.0,0.0,0.0,1.0,0.0,0.0,0.0,1.0,-0.3292151689529419,0.6053135991096497,0.20341284573078147,1.2184696791468346e-07,0.0,0.0,0.0,1.2184696791468346e-07,0.0,0.0,0.0,1.2184696791468346e-07,-0.18632635,-0.5687856999999987,10.6696352,8.999999999999999e-08,0.0,0.0,0.0,8.999999999999999e-08,0.0,0.0,0.0,8.999999999999999e-08
1737286253.4938967,20803,1737286253,492702272,base_link,0.02145666671239525,-0.01100556072663826,-0.7000756400615576,-0.7136613953963644,1.0,0.0,0.0,0.0,1.0,0.0,0.0,0.0,1.0,0.15803460776805878,-0.007685014046728608,0.020536022260785103,1.2184696791468346e-07,0.0,0.0,0.0,1.2184696791468346e-07,0.0,0.0,0.0,1.2184696791468346e-07,-0.5099458,-0.41187929999999867,10.9638347,8.999999999999999e-08,0.0,0.0,0.0,8.999999999999999e-08,0.0,0.0,0.0,8.999999999999999e-08
1737286253.5858681,20804,1737286253,583700224,base_link,0.022638747137220815,-0.010730142445410531,-0.7009256894258212,-0.7127941702020966,1.0,0.0,0.0,0.0,1.0,0.0,0.0,0.0,1.0,-0.08318106830120087,0.15745954215526584,0.1522623151540756,1.2184696791468346e-07,0.0,0.0,0.0,1.2184696791468346e-07,0.0,0.0,0.0,1.2184696791468346e-07,-0.5491724,-0.12748644999999886,9.3751574,8.999999999999999e-08,0.0,0.0,0.0,8.999999999999999e-08,0.0,0.0,0.0,8.999999999999999e-08
1737286253.6839018,20805,1737286253,682695872,base_link,0.02239202137870929,-0.011281473143570612,-0.6979936770667337,-0.7156648325278717,1.0,0.0,0.0,0.0,1.0,0.0,0.0,0.0,1.0,0.19018268585205078,-0.382625550031662,-0.1401845663785934,1.2184696791468346e-07,0.0,0.0,0.0,1.2184696791468346e-07,0.0,0.0,0.0,1.2184696791468346e-07,0.0,-0.8727918499999987,10.002783,8.999999999999999e-08,0.0,0.0,0.0,8.999999999999999e-08,0.0,0.0,0.0,8.999999999999999e-08
1737286253.7859263,20806,1737286253,784693056,base_link,0.019363272150322547,-0.011531197158022748,-0.6936347463207833,-0.7199742591789221,1.0,0.0,0.0,0.0,1.0,0.0,0.0,0.0,1.0,0.12596897780895233,0.07039870321750641,0.01976522803306579,1.2184696791468346e-07,0.0,0.0,0.0,1.2184696791468346e-07,0.0,0.0,0.0,1.2184696791468346e-07,-0.44129925000000003,-0.1176797999999987,10.62060195,8.999999999999999e-08,0.0,0.0,0.0,8.999999999999999e-08,0.0,0.0,0.0,8.999999999999999e-08
1737286253.8849072,20807,1737286253,883687168,base_link,0.021686351051210143,-0.013321473972014098,-0.69101255195329,-0.7223945553174513,1.0,0.0,0.0,0.0,1.0,0.0,0.0,0.0,1.0,-0.2978833317756653,0.355855792760849,0.08902118355035778,1.2184696791468346e-07,0.0,0.0,0.0,1.2184696791468346e-07,0.0,0.0,0.0,1.2184696791468346e-07,-0.24516625,-0.5001391499999988,9.9831697,8.999999999999999e-08,0.0,0.0,0.0,8.999999999999999e-08,0.0,0.0,0.0,8.999999999999999e-08
1737286253.9849677,20808,1737286253,983683072,base_link,0.025567013651467692,-0.01576533197179801,-0.6901622682821544,-0.723030999031436,1.0,0.0,0.0,0.0,1.0,0.0,0.0,0.0,1.0,-0.28804847598075867,0.2598439157009125,-0.05258298292756084,1.2184696791468346e-07,0.0,0.0,0.0,1.2184696791468346e-07,0.0,0.0,0.0,1.2184696791468346e-07,-0.5099458,-0.009806649999998867,9.2574776,8.999999999999999e-08,0.0,0.0,0.0,8.999999999999999e-08,0.0,0.0,0.0,8.999999999999999e-08
1737286254.0909579,20809,1737286254,87680768,base_link,0.027382058593141863,-0.020649464608537567,-0.6909399087414702,-0.7220982377674878,1.0,0.0,0.0,0.0,1.0,0.0,0.0,0.0,1.0,0.25433245301246643,-0.2917063534259796,-0.061202690005302395,1.2184696791468346e-07,0.0,0.0,0.0,1.2184696791468346e-07,0.0,0.0,0.0,1.2184696791468346e-07,0.06864655,1.2478060151639868e-15,10.18910935,8.999999999999999e-08,0.0,0.0,0.0,8.999999999999999e-08,0.0,0.0,0.0,8.999999999999999e-08
1737286254.1849842,20810,1737286254,183675648,base_link,0.03068881874057636,-0.025119804267569303,-0.6907285164002449,-0.7220258364278827,1.0,0.0,0.0,0.0,1.0,0.0,0.0,0.0,1.0,0.3432151973247528,-0.19327741861343384,-0.007434654049575305,1.2184696791468346e-07,0.0,0.0,0.0,1.2184696791468346e-07,0.0,0.0,0.0,1.2184696791468346e-07,-0.4707192,-0.09806649999999892,8.825985,8.999999999999999e-08,0.0,0.0,0.0,8.999999999999999e-08,0.0,0.0,0.0,8.999999999999999e-08
1737286254.2849605,20811,1737286254,282668480,base_link,0.02945876078613845,-0.02534233447389719,-0.6902979709776011,-0.7224809054643347,1.0,0.0,0.0,0.0,1.0,0.0,0.0,0.0,1.0,-0.007954385131597519,-0.0916411355137825,0.03283123672008516,1.2184696791468346e-07,0.0,0.0,0.0,1.2184696791468346e-07,0.0,0.0,0.0,1.2184696791468346e-07,-0.40207265000000003,-0.3138127999999989,9.218251,8.999999999999999e-08,0.0,0.0,0.0,8.999999999999999e-08,0.0,0.0,0.0,8.999999999999999e-08
1737286254.3840475,20812,1737286254,382665408,base_link,0.03372150962592445,-0.026790164402735954,-0.6897863923263401,-0.7227308488235685,1.0,0.0,0.0,0.0,1.0,0.0,0.0,0.0,1.0,-0.10174228250980377,0.16710901260375974,-0.16796626150608066,1.2184696791468346e-07,0.0,0.0,0.0,1.2184696791468346e-07,0.0,0.0,0.0,1.2184696791468346e-07,0.0980665,-0.27458619999999884,9.3555441,8.999999999999999e-08,0.0,0.0,0.0,8.999999999999999e-08,0.0,0.0,0.0,8.999999999999999e-08
1737286254.4850428,20813,1737286254,483661312,base_link,0.029701939268635267,-0.025823885924739838,-0.6879291967638032,-0.7247098329395958,1.0,0.0,0.0,0.0,1.0,0.0,0.0,0.0,1.0,0.24151238799095154,-0.14381496608257294,0.026735173538327234,1.2184696791468346e-07,0.0,0.0,0.0,1.2184696791468346e-07,0.0,0.0,0.0,1.2184696791468346e-07,-0.1569064,0.06864655000000125,10.16949605,8.999999999999999e-08,0.0,0.0,0.0,8.999999999999999e-08,0.0,0.0,0.0,8.999999999999999e-08
1737286254.5851345,20814,1737286254,583656448,base_link,0.02798104188362255,-0.028287388593096933,-0.6863295285237254,-0.7262015307186366,1.0,0.0,0.0,0.0,1.0,0.0,0.0,0.0,1.0,-0.10182349383831024,0.4508478343486786,0.011366445571184103,1.2184696791468346e-07,0.0,0.0,0.0,1.2184696791468346e-07,0.0,0.0,0.0,1.2184696791468346e-07,-0.30400615,-0.7158854499999987,10.67944185,8.999999999999999e-08,0.0,0.0,0.0,8.999999999999999e-08,0.0,0.0,0.0,8.999999999999999e-08
1737286254.6840577,20815,1737286254,682652096,base_link,0.024518207364905637,-0.029380700420711822,-0.6864956970654865,-0.7261262217142218,1.0,0.0,0.0,0.0,1.0,0.0,0.0,0.0,1.0,-0.3417302966117859,0.3564402163028717,0.14019806683063502,1.2184696791468346e-07,0.0,0.0,0.0,1.2184696791468346e-07,0.0,0.0,0.0,1.2184696791468346e-07,-0.1765197,-0.4805258499999986,11.15016105,8.999999999999999e-08,0.0,0.0,0.0,8.999999999999999e-08,0.0,0.0,0.0,8.999999999999999e-08
1737286254.7840054,20816,1737286254,782649792,base_link,0.025220670428303973,-0.027691848869378467,-0.6866363015881932,-0.7260355835843242,1.0,0.0,0.0,0.0,1.0,0.0,0.0,0.0,1.0,-0.3619600832462311,0.15573891997337339,-0.15291827917099002,1.2184696791468346e-07,0.0,0.0,0.0,1.2184696791468346e-07,0.0,0.0,0.0,1.2184696791468346e-07,-0.10787315,-0.6472388999999986,10.99325465,8.999999999999999e-08,0.0,0.0,0.0,8.999999999999999e-08,0.0,0.0,0.0,8.999999999999999e-08
1737286254.8888054,20817,1737286254,885647744,base_link,0.023978651609293498,-0.025881996276145725,-0.6875853527124626,-0.7252458405747946,1.0,0.0,0.0,0.0,1.0,0.0,0.0,0.0,1.0,0.13865956664085388,-0.4485826790332794,-0.1276294887065887,1.2184696791468346e-07,0.0,0.0,0.0,1.2184696791468346e-07,0.0,0.0,0.0,1.2184696791468346e-07,-0.14709975,-0.04903324999999872,10.48330885,8.999999999999999e-08,0.0,0.0,0.0,8.999999999999999e-08,0.0,0.0,0.0,8.999999999999999e-08
1737286254.984184,20818,1737286254,982643904,base_link,0.02877964246328955,-0.023079786125192497,-0.6900589943727224,-0.7228123130781652,1.0,0.0,0.0,0.0,1.0,0.0,0.0,0.0,1.0,-0.426207035779953,0.24181906878948212,0.036028366535901996,1.2184696791468346e-07,0.0,0.0,0.0,1.2184696791468346e-07,0.0,0.0,0.0,1.2184696791468346e-07,-0.48052585000000003,0.41187930000000106,8.63965865,8.999999999999999e-08,0.0,0.0,0.0,8.999999999999999e-08,0.0,0.0,0.0,8.999999999999999e-08
1737286255.0861125,20819,1737286255,84639296,base_link,0.021536185775702255,-0.02001376660850797,-0.6906038269626796,-0.722635451685617,1.0,0.0,0.0,0.0,1.0,0.0,0.0,0.0,1.0,-0.1766221821308136,0.3158486783504486,0.11564371734857555,1.2184696791468346e-07,0.0,0.0,0.0,1.2184696791468346e-07,0.0,0.0,0.0,1.2184696791468346e-07,-0.4707192,-0.9120184499999986,11.0226746,8.999999999999999e-08,0.0,0.0,0.0,8.999999999999999e-08,0.0,0.0,0.0,8.999999999999999e-08
1737286255.1851723,20820,1737286255,183635456,base_link,0.02087737267841449,-0.018248887997390727,-0.6922516386140423,-0.7211232781106699,1.0,0.0,0.0,0.0,1.0,0.0,0.0,0.0,1.0,-0.3809177279472351,0.14868122339248657,0.11134240776300429,1.2184696791468346e-07,0.0,0.0,0.0,1.2184696791468346e-07,0.0,0.0,0.0,1.2184696791468346e-07,-0.16671305,-0.5982056499999987,10.65982855,8.999999999999999e-08,0.0,0.0,0.0,8.999999999999999e-08,0.0,0.0,0.0,8.999999999999999e-08
1737286255.285249,20821,1737286255,283630336,base_link,0.022616054053799982,-0.01667740595368328,-0.6930352152621058,-0.7203558624987366,1.0,0.0,0.0,0.0,1.0,0.0,0.0,0.0,1.0,-0.38470393419265747,0.1373935490846634,-0.06182336062192918,1.2184696791468346e-07,0.0,0.0,0.0,1.2184696791468346e-07,0.0,0.0,0.0,1.2184696791468346e-07,-0.0196133,-0.7845319999999988,10.11065615,8.999999999999999e-08,0.0,0.0,0.0,8.999999999999999e-08,0.0,0.0,0.0,8.999999999999999e-08
1737286255.3861914,20822,1737286255,384631104,base_link,0.019401240943426715,-0.013074673985461171,-0.6936275138800176,-0.7199538295881581,1.0,0.0,0.0,0.0,1.0,0.0,0.0,0.0,1.0,-0.3517950177192688,0.025003680959343903,-0.04877694696187973,1.2184696791468346e-07,0.0,0.0,0.0,1.2184696791468346e-07,0.0,0.0,0.0,1.2184696791468346e-07,-0.50013915,-0.13729309999999875,10.2577559,8.999999999999999e-08,0.0,0.0,0.0,8.999999999999999e-08,0.0,0.0,0.0,8.999999999999999e-08
1737286255.4852352,20823,1737286255,483621632,base_link,0.015105810214160988,-0.005797317862395686,-0.6941097662922451,-0.7196873195639205,1.0,0.0,0.0,0.0,1.0,0.0,0.0,0.0,1.0,-0.06007882580161095,-0.019975321367383007,-0.01897889748215675,1.2184696791468346e-07,0.0,0.0,0.0,1.2184696791468346e-07,0.0,0.0,0.0,1.2184696791468346e-07,-0.36284605000000003,-0.009806649999998729,10.38524235,8.999999999999999e-08,0.0,0.0,0.0,8.999999999999999e-08,0.0,0.0,0.0,8.999999999999999e-08
1737286255.5841382,20824,1737286255,582607552,base_link,0.009708222577203092,0.00030862271007423437,-0.6939522940480575,-0.7199554630335494,1.0,0.0,0.0,0.0,1.0,0.0,0.0,0.0,1.0,0.16596512496471405,-0.3084879219532013,0.04851790517568592,1.2184696791468346e-07,0.0,0.0,0.0,1.2184696791468346e-07,0.0,0.0,0.0,1.2184696791468346e-07,-0.26477955,-0.323619449999999,8.384685750000001,8.999999999999999e-08,0.0,0.0,0.0,8.999999999999999e-08,0.0,0.0,0.0,8.999999999999999e-08
1737286255.6861835,20825,1737286255,684607552,base_link,0.011014915766441157,0.0037311475997238246,-0.6922158275758072,-0.7215968391157127,1.0,0.0,0.0,0.0,1.0,0.0,0.0,0.0,1.0,0.02380150929093361,-0.14603668451309204,0.033355608582496664,1.2184696791468346e-07,0.0,0.0,0.0,1.2184696791468346e-07,0.0,0.0,0.0,1.2184696791468346e-07,-0.30400615,-0.6668521999999989,9.40457735,8.999999999999999e-08,0.0,0.0,0.0,8.999999999999999e-08,0.0,0.0,0.0,8.999999999999999e-08
1737286255.7851853,20826,1737286255,784620096,base_link,0.013301079994467014,0.0051061129851210346,-0.6880590817257396,-0.7255147889160469,1.0,0.0,0.0,0.0,1.0,0.0,0.0,0.0,1.0,-0.14052289724349976,-0.022864403203129793,-0.1993265300989151,1.2184696791468346e-07,0.0,0.0,0.0,1.2184696791468346e-07,0.0,0.0,0.0,1.2184696791468346e-07,-0.5099458,-0.6276255999999989,9.32612415,8.999999999999999e-08,0.0,0.0,0.0,8.999999999999999e-08,0.0,0.0,0.0,8.999999999999999e-08
1737286255.8844395,20827,1737286255,882610880,base_link,0.01010122936755242,0.00442765935777625,-0.6835741079007056,-0.7297977802142385,1.0,0.0,0.0,0.0,1.0,0.0,0.0,0.0,1.0,0.23472443222999573,-0.32846829295158386,-0.2194782644510269,1.2184696791468346e-07,0.0,0.0,0.0,1.2184696791468346e-07,0.0,0.0,0.0,1.2184696791468346e-07,-0.67665885,-0.34323274999999875,10.24794925,8.999999999999999e-08,0.0,0.0,0.0,8.999999999999999e-08,0.0,0.0,0.0,8.999999999999999e-08
1737286255.9869,20828,1737286255,984603712,base_link,0.009393803057633841,0.0031049185716980248,-0.6832745937573883,-0.730094477085297,1.0,0.0,0.0,0.0,1.0,0.0,0.0,0.0,1.0,-0.046351492404937744,0.17680160701274872,-0.10792320221662524,1.2184696791468346e-07,0.0,0.0,0.0,1.2184696791468346e-07,0.0,0.0,0.0,1.2184696791468346e-07,-0.32361945000000003,0.03922660000000113,9.2378643,8.999999999999999e-08,0.0,0.0,0.0,8.999999999999999e-08,0.0,0.0,0.0,8.999999999999999e-08
1737286256.0868802,20829,1737286256,84597312,base_link,0.010084954409748022,0.0012260269671291537,-0.6851809382051852,-0.7283020475549217,1.0,0.0,0.0,0.0,1.0,0.0,0.0,0.0,1.0,-0.04297742247581482,0.31300830841064453,0.0989943295717239,1.2184696791468346e-07,0.0,0.0,0.0,1.2184696791468346e-07,0.0,0.0,0.0,1.2184696791468346e-07,-0.26477955,-0.3530393999999989,9.0613446,8.999999999999999e-08,0.0,0.0,0.0,8.999999999999999e-08,0.0,0.0,0.0,8.999999999999999e-08
1737286256.18565,20830,1737286256,182591680,base_link,0.008503005182904595,0.00197899121288114,-0.6852054786803522,-0.728297490372628,1.0,0.0,0.0,0.0,1.0,0.0,0.0,0.0,1.0,0.15911105275154114,-0.27659791707992554,0.033337302505970036,1.2184696791468346e-07,0.0,0.0,0.0,1.2184696791468346e-07,0.0,0.0,0.0,1.2184696791468346e-07,-0.30400615,-0.49033249999999867,11.01286795,8.999999999999999e-08,0.0,0.0,0.0,8.999999999999999e-08,0.0,0.0,0.0,8.999999999999999e-08
1737286256.2840178,20831,1737286256,282587584,base_link,0.00890047719286183,0.0019715590137999897,-0.6851479134058363,-0.7283469168029909,1.0,0.0,0.0,0.0,1.0,0.0,0.0,0.0,1.0,0.12894678115844727,-0.3616968095302582,-0.09921499341726299,1.2184696791468346e-07,0.0,0.0,0.0,1.2184696791468346e-07,0.0,0.0,0.0,1.2184696791468346e-07,-0.3334261,-0.35303939999999884,9.52225715,8.999999999999999e-08,0.0,0.0,0.0,8.999999999999999e-08,0.0,0.0,0.0,8.999999999999999e-08
1737286256.3859591,20832,1737286256,383584256,base_link,0.01072287458190301,0.001066269353073765,-0.6860544585783103,-0.727470386266815,1.0,0.0,0.0,0.0,1.0,0.0,0.0,0.0,1.0,0.16671247780323029,-0.3150956630706787,-0.058830678462982136,1.2184696791468346e-07,0.0,0.0,0.0,1.2184696791468346e-07,0.0,0.0,0.0,1.2184696791468346e-07,-0.20593965,-0.5393657499999986,11.18938765,8.999999999999999e-08,0.0,0.0,0.0,8.999999999999999e-08,0.0,0.0,0.0,8.999999999999999e-08
1737286256.4858072,20833,1737286256,483579648,base_link,0.009483214363673963,0.0020513712244582664,-0.6868074660970237,-0.7267746315294843,1.0,0.0,0.0,0.0,1.0,0.0,0.0,0.0,1.0,0.2471771389245987,-0.3029307723045349,-0.07679307460784908,1.2184696791468346e-07,0.0,0.0,0.0,1.2184696791468346e-07,0.0,0.0,0.0,1.2184696791468346e-07,-0.2549729,0.1470997500000011,9.0809579,8.999999999999999e-08,0.0,0.0,0.0,8.999999999999999e-08,0.0,0.0,0.0,8.999999999999999e-08
1737286256.586031,20834,1737286256,583578112,base_link,0.011274835310060202,-0.0027000953174707155,-0.6877488387815982,-0.7258561305992882,1.0,0.0,0.0,0.0,1.0,0.0,0.0,0.0,1.0,0.17253871262073517,0.04980701208114624,0.0017243006732314764,1.2184696791468346e-07,0.0,0.0,0.0,1.2184696791468346e-07,0.0,0.0,0.0,1.2184696791468346e-07,-0.18632635,-0.14709974999999886,9.414384,8.999999999999999e-08,0.0,0.0,0.0,8.999999999999999e-08,0.0,0.0,0.0,8.999999999999999e-08
1737286256.686027,20835,1737286256,684574272,base_link,0.0213023227241657,-0.011885324187005861,-0.6878162499204471,-0.7254748489512908,1.0,0.0,0.0,0.0,1.0,0.0,0.0,0.0,1.0,0.2916221022605896,-0.032420195639133474,-0.14979535341262817,1.2184696791468346e-07,0.0,0.0,0.0,1.2184696791468346e-07,0.0,0.0,0.0,1.2184696791468346e-07,-0.08825985,-0.10787314999999886,9.22805765,8.999999999999999e-08,0.0,0.0,0.0,8.999999999999999e-08,0.0,0.0,0.0,8.999999999999999e-08
1737286256.7900383,20836,1737286256,788571968,base_link,0.031388449438515716,-0.021340568167089152,-0.6881586467702493,-0.7245667824759088,1.0,0.0,0.0,0.0,1.0,0.0,0.0,0.0,1.0,-0.044805996119976044,0.05160840973258017,-0.12473265081644058,1.2184696791468346e-07,0.0,0.0,0.0,1.2184696791468346e-07,0.0,0.0,0.0,1.2184696791468346e-07,-0.46091255,0.1470997500000011,9.16921775,8.999999999999999e-08,0.0,0.0,0.0,8.999999999999999e-08,0.0,0.0,0.0,8.999999999999999e-08
1737286256.889396,20837,1737286256,887564800,base_link,0.03584600235384568,-0.026656502940815473,-0.687486421359165,-0.7248219887758531,1.0,0.0,0.0,0.0,1.0,0.0,0.0,0.0,1.0,0.32628333568573,-0.07182744145393373,-0.1286723017692566,1.2184696791468346e-07,0.0,0.0,0.0,1.2184696791468346e-07,0.0,0.0,0.0,1.2184696791468346e-07,-0.5491724,-0.04903324999999877,10.05181625,8.999999999999999e-08,0.0,0.0,0.0,8.999999999999999e-08,0.0,0.0,0.0,8.999999999999999e-08
1737286256.9884357,20838,1737286256,986560960,base_link,0.039344573426358595,-0.033745542063058444,-0.6888096374239822,-0.7230868041422209,1.0,0.0,0.0,0.0,1.0,0.0,0.0,0.0,1.0,0.30951544642448425,-0.08700489252805708,0.126978799700737,1.2184696791468346e-07,0.0,0.0,0.0,1.2184696791468346e-07,0.0,0.0,0.0,1.2184696791468346e-07,-0.32361945000000003,-0.5982056499999988,9.60071035,8.999999999999999e-08,0.0,0.0,0.0,8.999999999999999e-08,0.0,0.0,0.0,8.999999999999999e-08
1737286257.0878096,20839,1737286257,84553536,base_link,0.04193114591934339,-0.03766445119054155,-0.6891691363736058,-0.7224050592212548,1.0,0.0,0.0,0.0,1.0,0.0,0.0,0.0,1.0,0.14469943940639496,-0.2070300132036209,-0.04990380257368085,1.2184696791468346e-07,0.0,0.0,0.0,1.2184696791468346e-07,0.0,0.0,0.0,1.2184696791468346e-07,-0.3138128,-0.4216859499999988,9.7085835,8.999999999999999e-08,0.0,0.0,0.0,8.999999999999999e-08,0.0,0.0,0.0,8.999999999999999e-08
1737286257.18505,20840,1737286257,182546624,base_link,0.04624400081498841,-0.04247361415218625,-0.689520213914039,-0.7215395755559169,1.0,0.0,0.0,0.0,1.0,0.0,0.0,0.0,1.0,-0.1481625735759735,0.49851444363594055,-0.0021459569688887016,1.2184696791468346e-07,0.0,0.0,0.0,1.2184696791468346e-07,0.0,0.0,0.0,1.2184696791468346e-07,-0.48052585000000003,-0.07845319999999899,8.296425900000001,8.999999999999999e-08,0.0,0.0,0.0,8.999999999999999e-08,0.0,0.0,0.0,8.999999999999999e-08
1737286257.2851918,20841,1737286257,282541248,base_link,0.05099868226012558,-0.04508664859740567,-0.6893525892931847,-0.7212207263804659,1.0,0.0,0.0,0.0,1.0,0.0,0.0,0.0,1.0,-0.24807484447956085,0.2639135420322418,-0.03237296268343929,1.2184696791468346e-07,0.0,0.0,0.0,1.2184696791468346e-07,0.0,0.0,0.0,1.2184696791468346e-07,-0.588399,-0.44129924999999876,10.2773692,8.999999999999999e-08,0.0,0.0,0.0,8.999999999999999e-08,0.0,0.0,0.0,8.999999999999999e-08
1737286257.38397,20842,1737286257,382535616,base_link,0.05205567087648887,-0.046139612509301105,-0.6870678411420219,-0.7232559194058018,1.0,0.0,0.0,0.0,1.0,0.0,0.0,0.0,1.0,0.15107645094394684,-0.3817653954029083,-0.21890734136104578,1.2184696791468346e-07,0.0,0.0,0.0,1.2184696791468346e-07,0.0,0.0,0.0,1.2184696791468346e-07,-0.6472389000000001,0.31381280000000106,8.48275225,8.999999999999999e-08,0.0,0.0,0.0,8.999999999999999e-08,0.0,0.0,0.0,8.999999999999999e-08
1737286257.4891918,20843,1737286257,486532544,base_link,0.05484389388081122,-0.04582397644061331,-0.6863588411388938,-0.7237429458569078,1.0,0.0,0.0,0.0,1.0,0.0,0.0,0.0,1.0,-0.4220801889896393,0.35243210196495056,0.0976902917027473,1.2184696791468346e-07,0.0,0.0,0.0,1.2184696791468346e-07,0.0,0.0,0.0,1.2184696791468346e-07,-0.36284605000000003,-0.3726526999999986,11.1011278,8.999999999999999e-08,0.0,0.0,0.0,8.999999999999999e-08,0.0,0.0,0.0,8.999999999999999e-08
1737286257.5860298,20844,1737286257,583531776,base_link,0.051984507250230044,-0.04398713737509459,-0.685893194316947,-0.7245089845827932,1.0,0.0,0.0,0.0,1.0,0.0,0.0,0.0,1.0,-0.024016158655285835,-0.06653338670730592,-0.10845284163951872,1.2184696791468346e-07,0.0,0.0,0.0,1.2184696791468346e-07,0.0,0.0,0.0,1.2184696791468346e-07,-0.5099458,-0.8825984999999986,10.9638347,8.999999999999999e-08,0.0,0.0,0.0,8.999999999999999e-08,0.0,0.0,0.0,8.999999999999999e-08
1737286257.6851847,20845,1737286257,682525120,base_link,0.05166501189895863,-0.0432613891617394,-0.6866140114868142,-0.7238925182534087,1.0,0.0,0.0,0.0,1.0,0.0,0.0,0.0,1.0,0.06213982403278351,0.043706577271223075,0.08117298781871796,1.2184696791468346e-07,0.0,0.0,0.0,1.2184696791468346e-07,0.0,0.0,0.0,1.2184696791468346e-07,-0.32361945000000003,0.19613300000000122,10.002783,8.999999999999999e-08,0.0,0.0,0.0,8.999999999999999e-08,0.0,0.0,0.0,8.999999999999999e-08
1737286257.784186,20846,1737286257,782522048,base_link,0.051722503393113836,-0.04002341792759361,-0.6845511616310186,-0.7260252170343438,1.0,0.0,0.0,0.0,1.0,0.0,0.0,0.0,1.0,0.15409566462039948,-0.12039022147655487,0.04223980754613878,1.2184696791468346e-07,0.0,0.0,0.0,1.2184696791468346e-07,0.0,0.0,0.0,1.2184696791468346e-07,-0.48052585000000003,-0.009806649999998715,10.4931155,8.999999999999999e-08,0.0,0.0,0.0,8.999999999999999e-08,0.0,0.0,0.0,8.999999999999999e-08
1737286257.8851495,20847,1737286257,883518720,base_link,0.05364832965586701,-0.03919801821237637,-0.6811167334374575,-0.7291538709523833,1.0,0.0,0.0,0.0,1.0,0.0,0.0,0.0,1.0,0.1585102081298828,-0.05420562997460366,-0.03549078106880187,1.2184696791468346e-07,0.0,0.0,0.0,1.2184696791468346e-07,0.0,0.0,0.0,1.2184696791468346e-07,-0.4903325,-0.02941994999999877,10.05181625,8.999999999999999e-08,0.0,0.0,0.0,8.999999999999999e-08,0.0,0.0,0.0,8.999999999999999e-08
1737286257.98606,20848,1737286257,982513344,base_link,0.05361379391045446,-0.039773041655376894,-0.6788649059247137,-0.7312223367511668,1.0,0.0,0.0,0.0,1.0,0.0,0.0,0.0,1.0,0.10302505642175674,-0.12407243996858597,-0.0054537598043680035,1.2184696791468346e-07,0.0,0.0,0.0,1.2184696791468346e-07,0.0,0.0,0.0,1.2184696791468346e-07,-0.7060788,-0.5099457999999989,9.1397978,8.999999999999999e-08,0.0,0.0,0.0,8.999999999999999e-08,0.0,0.0,0.0,8.999999999999999e-08
1737286258.0843942,20849,1737286258,82504640,base_link,0.05495390405614301,-0.040459571856127,-0.6779563555358795,-0.7319277774908637,1.0,0.0,0.0,0.0,1.0,0.0,0.0,0.0,1.0,0.12082194536924362,-0.2048664093017578,0.0010120921069756402,1.2184696791468346e-07,0.0,0.0,0.0,1.2184696791468346e-07,0.0,0.0,0.0,1.2184696791468346e-07,-0.4314926,-0.039226599999998946,8.5906254,8.999999999999999e-08,0.0,0.0,0.0,8.999999999999999e-08,0.0,0.0,0.0,8.999999999999999e-08
1737286258.1864119,20850,1737286258,184496960,base_link,0.051533595769408844,-0.040157907830567184,-0.6780648744486567,-0.7320926560106134,1.0,0.0,0.0,0.0,1.0,0.0,0.0,0.0,1.0,0.12288274616003036,-0.23246769607067108,-0.02966006100177762,1.2184696791468346e-07,0.0,0.0,0.0,1.2184696791468346e-07,0.0,0.0,0.0,1.2184696791468346e-07,-0.4511059,-0.6472388999999986,11.05209455,8.999999999999999e-08,0.0,0.0,0.0,8.999999999999999e-08,0.0,0.0,0.0,8.999999999999999e-08
1737286258.288018,20851,1737286258,285490304,base_link,0.055003928298692155,-0.04091863084499725,-0.679699780419055,-0.7302797012239705,1.0,0.0,0.0,0.0,1.0,0.0,0.0,0.0,1.0,0.06329584866762161,-0.1576530933380127,-0.011946201324462872,1.2184696791468346e-07,0.0,0.0,0.0,1.2184696791468346e-07,0.0,0.0,0.0,1.2184696791468346e-07,-0.32361945000000003,-0.176519699999999,8.34545915,8.999999999999999e-08,0.0,0.0,0.0,8.999999999999999e-08,0.0,0.0,0.0,8.999999999999999e-08
1737286258.3855405,20852,1737286258,382488512,base_link,0.05362426760499419,-0.03995489364034972,-0.680786659109924,-0.7294227643664299,1.0,0.0,0.0,0.0,1.0,0.0,0.0,0.0,1.0,0.14276078343391418,-0.09653855115175247,-0.008916322141885745,1.2184696791468346e-07,0.0,0.0,0.0,1.2184696791468346e-07,0.0,0.0,0.0,1.2184696791468346e-07,-0.48052585000000003,-0.6570455499999988,10.24794925,8.999999999999999e-08,0.0,0.0,0.0,8.999999999999999e-08,0.0,0.0,0.0,8.999999999999999e-08
1737286258.4863207,20853,1737286258,483483648,base_link,0.05216873535151581,-0.03938708510054898,-0.6816865578498102,-0.7287184074976993,1.0,0.0,0.0,0.0,1.0,0.0,0.0,0.0,1.0,0.017646271735429764,0.05056970939040184,0.0022282744757831036,1.2184696791468346e-07,0.0,0.0,0.0,1.2184696791468346e-07,0.0,0.0,0.0,1.2184696791468346e-07,-0.392266,-0.6276255999999987,10.69905515,8.999999999999999e-08,0.0,0.0,0.0,8.999999999999999e-08,0.0,0.0,0.0,8.999999999999999e-08
1737286258.5855217,20854,1737286258,582477760,base_link,0.0554113881598882,-0.0401249828401425,-0.6822729172861401,-0.7278895727733239,1.0,0.0,0.0,0.0,1.0,0.0,0.0,0.0,1.0,0.02151164598762989,0.10317042469978334,0.16929233074188232,1.2184696791468346e-07,0.0,0.0,0.0,1.2184696791468346e-07,0.0,0.0,0.0,1.2184696791468346e-07,-0.26477955,-0.4314925999999987,9.97336305,8.999999999999999e-08,0.0,0.0,0.0,8.999999999999999e-08,0.0,0.0,0.0,8.999999999999999e-08
1737286258.6855068,20855,1737286258,682472896,base_link,0.055465797321300296,-0.03981462842709127,-0.6821197272704634,-0.7280460276378093,1.0,0.0,0.0,0.0,1.0,0.0,0.0,0.0,1.0,0.1521250456571579,-0.3938417136669159,-0.017832359299063634,1.2184696791468346e-07,0.0,0.0,0.0,1.2184696791468346e-07,0.0,0.0,0.0,1.2184696791468346e-07,-0.4707192,-0.8041452999999987,10.14988275,8.999999999999999e-08,0.0,0.0,0.0,8.999999999999999e-08,0.0,0.0,0.0,8.999999999999999e-08
1737286258.7864048,20856,1737286258,783464960,base_link,0.06004836570144162,-0.03758649119207279,-0.6819770156791831,-0.7279346121333766,1.0,0.0,0.0,0.0,1.0,0.0,0.0,0.0,1.0,-0.40499043464660645,0.031649384647607796,-0.060007955878973014,1.2184696791468346e-07,0.0,0.0,0.0,1.2184696791468346e-07,0.0,0.0,0.0,1.2184696791468346e-07,-0.3726527,-0.5197524499999987,10.50292215,8.999999999999999e-08,0.0,0.0,0.0,8.999999999999999e-08,0.0,0.0,0.0,8.999999999999999e-08
1737286258.8846724,20857,1737286258,882458560,base_link,0.05818540206390497,-0.03347688770331493,-0.6814893938528783,-0.7287427276085833,1.0,0.0,0.0,0.0,1.0,0.0,0.0,0.0,1.0,-0.2090480625629425,0.150781512260437,-0.0909552574157715,1.2184696791468346e-07,0.0,0.0,0.0,1.2184696791468346e-07,0.0,0.0,0.0,1.2184696791468346e-07,-0.8041453000000001,-0.6374322499999987,10.4931155,8.999999999999999e-08,0.0,0.0,0.0,8.999999999999999e-08,0.0,0.0,0.0,8.999999999999999e-08
1737286258.9844546,20858,1737286258,982456000,base_link,0.053987499789502354,-0.024145699334909693,-0.6827249036081277,-0.7282781344125191,1.0,0.0,0.0,0.0,1.0,0.0,0.0,0.0,1.0,0.14491119980812073,-0.4382500946521759,0.12636174261569982,1.2184696791468346e-07,0.0,0.0,0.0,1.2184696791468346e-07,0.0,0.0,0.0,1.2184696791468346e-07,-0.71588545,-0.29419949999999895,8.8063717,8.999999999999999e-08,0.0,0.0,0.0,8.999999999999999e-08,0.0,0.0,0.0,8.999999999999999e-08
1737286259.086375,20859,1737286259,83449088,base_link,0.03179662919040299,-0.0026038346097617487,-0.6839843469262626,-0.7287987428483305,1.0,0.0,0.0,0.0,1.0,0.0,0.0,0.0,1.0,0.3768349885940552,-0.724907636642456,0.09941987693309792,1.2184696791468346e-07,0.0,0.0,0.0,1.2184696791468346e-07,0.0,0.0,0.0,1.2184696791468346e-07,-1.50041745,-0.4020726499999988,9.414384,8.999999999999999e-08,0.0,0.0,0.0,8.999999999999999e-08,0.0,0.0,0.0,8.999999999999999e-08
1737286259.185633,20860,1737286259,182442944,base_link,0.017521994973045397,0.006947874954696242,-0.6844496383831843,-0.7288164372754684,1.0,0.0,0.0,0.0,1.0,0.0,0.0,0.0,1.0,-0.11270513385534286,-0.11564321070909499,0.08436487615108491,1.2184696791468346e-07,0.0,0.0,0.0,1.2184696791468346e-07,0.0,0.0,0.0,1.2184696791468346e-07,-0.38245935,-0.2549728999999988,9.81645665,8.999999999999999e-08,0.0,0.0,0.0,8.999999999999999e-08,0.0,0.0,0.0,8.999999999999999e-08
1737286259.2849822,20861,1737286259,282436544,base_link,0.009679289073096736,0.011341864490717422,-0.6861576781953992,-0.7273000165862864,1.0,0.0,0.0,0.0,1.0,0.0,0.0,0.0,1.0,-0.08617812395095825,0.08977957069873811,0.12258652597665785,1.2184696791468346e-07,0.0,0.0,0.0,1.2184696791468346e-07,0.0,0.0,0.0,1.2184696791468346e-07,-0.5491724,-0.3530393999999987,10.0223963,8.999999999999999e-08,0.0,0.0,0.0,8.999999999999999e-08,0.0,0.0,0.0,8.999999999999999e-08
1737286259.3858273,20862,1737286259,384432448,base_link,0.013842071217701382,0.010070152926886733,-0.6885960180584533,-0.724943110180706,1.0,0.0,0.0,0.0,1.0,0.0,0.0,0.0,1.0,0.032811883836984634,-0.12401506304740904,0.15601965785026553,1.2184696791468346e-07,0.0,0.0,0.0,1.2184696791468346e-07,0.0,0.0,0.0,1.2184696791468346e-07,-0.51975245,-0.8237585999999989,9.60071035,8.999999999999999e-08,0.0,0.0,0.0,8.999999999999999e-08,0.0,0.0,0.0,8.999999999999999e-08
1737286259.488042,20863,1737286259,485425536,base_link,0.010291611622510584,0.020469028775925352,-0.6893319993780416,-0.7240832108429619,1.0,0.0,0.0,0.0,1.0,0.0,0.0,0.0,1.0,-0.12000799924135208,-0.34980061650276184,-0.06157603487372394,1.2184696791468346e-07,0.0,0.0,0.0,1.2184696791468346e-07,0.0,0.0,0.0,1.2184696791468346e-07,-1.2160246,-0.5589790499999987,10.091042850000001,8.999999999999999e-08,0.0,0.0,0.0,8.999999999999999e-08,0.0,0.0,0.0,8.999999999999999e-08
1737286259.5838432,20864,1737286259,582420416,base_link,-0.0040974270405975295,0.03465100873804481,-0.6870556507377227,-0.7257665268352127,1.0,0.0,0.0,0.0,1.0,0.0,0.0,0.0,1.0,0.11503191292285919,-0.4523007869720459,-0.17135326564311976,1.2184696791468346e-07,0.0,0.0,0.0,1.2184696791468346e-07,0.0,0.0,0.0,1.2184696791468346e-07,-1.0002783,-0.35303939999999884,9.9243298,8.999999999999999e-08,0.0,0.0,0.0,8.999999999999999e-08,0.0,0.0,0.0,8.999999999999999e-08
1737286259.687478,20865,1737286259,685412992,base_link,-0.014041405944005854,0.049115367759402825,-0.6844864125785491,-0.7272337111027807,1.0,0.0,0.0,0.0,1.0,0.0,0.0,0.0,1.0,-0.14903634786605835,-0.328469842672348,-0.20984059572219846,1.2184696791468346e-07,0.0,0.0,0.0,1.2184696791468346e-07,0.0,0.0,0.0,1.2184696791468346e-07,-0.55897905,1.0724646501842543e-15,8.75733845,8.999999999999999e-08,0.0,0.0,0.0,8.999999999999999e-08,0.0,0.0,0.0,8.999999999999999e-08
1737286259.783869,20866,1737286259,782406336,base_link,-0.02615115096853819,0.05454545765036253,-0.6839228418510921,-0.7270422661352359,1.0,0.0,0.0,0.0,1.0,0.0,0.0,0.0,1.0,0.14588662981987,0.04142726585268976,0.1343526840209961,1.2184696791468346e-07,0.0,0.0,0.0,1.2184696791468346e-07,0.0,0.0,0.0,1.2184696791468346e-07,-0.7256921000000001,-0.41187929999999884,9.4339973,8.999999999999999e-08,0.0,0.0,0.0,8.999999999999999e-08,0.0,0.0,0.0,8.999999999999999e-08
1737286259.8840184,20867,1737286259,882402752,base_link,-0.03648427673211878,0.054383988521099325,-0.6853050687296128,-0.7253056198026953,1.0,0.0,0.0,0.0,1.0,0.0,0.0,0.0,1.0,0.05108923465013504,0.09204726666212083,0.1475571095943451,1.2184696791468346e-07,0.0,0.0,0.0,1.2184696791468346e-07,0.0,0.0,0.0,1.2184696791468346e-07,-0.44129925000000003,-0.6962721499999986,11.3561007,8.999999999999999e-08,0.0,0.0,0.0,8.999999999999999e-08,0.0,0.0,0.0,8.999999999999999e-08
1737286259.9861336,20868,1737286259,984398656,base_link,-0.034356796982631714,0.049511984364505726,-0.6873542269079341,-0.7238178919156248,1.0,0.0,0.0,0.0,1.0,0.0,0.0,0.0,1.0,-0.24240069091320038,0.6323533654212952,0.15470491349697105,1.2184696791468346e-07,0.0,0.0,0.0,1.2184696791468346e-07,0.0,0.0,0.0,1.2184696791468346e-07,-0.46091255,-0.20593964999999875,10.36562905,8.999999999999999e-08,0.0,0.0,0.0,8.999999999999999e-08,0.0,0.0,0.0,8.999999999999999e-08
1737286260.0848334,20869,1737286260,83396096,base_link,-0.019028493983559457,0.02906860951917189,-0.6890423881941895,-0.7238877811021451,1.0,0.0,0.0,0.0,1.0,0.0,0.0,0.0,1.0,0.06545832008123398,0.6697360873222351,0.04817242175340644,1.2184696791468346e-07,0.0,0.0,0.0,1.2184696791468346e-07,0.0,0.0,0.0,1.2184696791468346e-07,-0.0588399,-0.7453053999999986,10.91480145,8.999999999999999e-08,0.0,0.0,0.0,8.999999999999999e-08,0.0,0.0,0.0,8.999999999999999e-08
1737286260.1850939,20870,1737286260,182391744,base_link,0.0031088568886402453,0.012769876708114632,-0.6887136343675154,-0.724914336383268,1.0,0.0,0.0,0.0,1.0,0.0,0.0,0.0,1.0,0.003998321946710348,0.17006836831569672,-0.0036460726987570732,1.2184696791468346e-07,0.0,0.0,0.0,1.2184696791468346e-07,0.0,0.0,0.0,1.2184696791468346e-07,-0.8433719,-0.029419949999998758,10.1400761,8.999999999999999e-08,0.0,0.0,0.0,8.999999999999999e-08,0.0,0.0,0.0,8.999999999999999e-08
1737286260.2839432,20871,1737286260,282386880,base_link,0.013750103019167058,0.0018384432757588116,-0.6859734607335688,-0.727494306481154,1.0,0.0,0.0,0.0,1.0,0.0,0.0,0.0,1.0,-0.05101931840181351,0.09616310894489287,-0.12420230358839036,1.2184696791468346e-07,0.0,0.0,0.0,1.2184696791468346e-07,0.0,0.0,0.0,1.2184696791468346e-07,-0.392266,-0.48052584999999887,9.11037785,8.999999999999999e-08,0.0,0.0,0.0,8.999999999999999e-08,0.0,0.0,0.0,8.999999999999999e-08
1737286260.3859336,20872,1737286260,384383552,base_link,0.017081416709301266,-0.0035914232370693362,-0.6818526540204505,-0.7312812626394878,1.0,0.0,0.0,0.0,1.0,0.0,0.0,0.0,1.0,0.18512940406799316,-0.262409508228302,-0.2023985832929611,1.2184696791468346e-07,0.0,0.0,0.0,1.2184696791468346e-07,0.0,0.0,0.0,1.2184696791468346e-07,-0.50013915,-0.36284604999999887,9.0025047,8.999999999999999e-08,0.0,0.0,0.0,8.999999999999999e-08,0.0,0.0,0.0,8.999999999999999e-08
1737286260.48564,20873,1737286260,483379456,base_link,0.010509680243819234,-0.005688238281134931,-0.6789822745090268,-0.7340573965767107,1.0,0.0,0.0,0.0,1.0,0.0,0.0,0.0,1.0,0.21112896502017975,-0.17763324081897736,0.04570879787206652,1.2184696791468346e-07,0.0,0.0,0.0,1.2184696791468346e-07,0.0,0.0,0.0,1.2184696791468346e-07,-0.7060788,-0.009806649999998864,9.2770909,8.999999999999999e-08,0.0,0.0,0.0,8.999999999999999e-08,0.0,0.0,0.0,8.999999999999999e-08
1737286260.5860693,20874,1737286260,582373568,base_link,0.0043734992267294446,-0.005420786964465211,-0.6766985249510402,-0.736227270550532,1.0,0.0,0.0,0.0,1.0,0.0,0.0,0.0,1.0,-0.07411710917949677,-0.07083161920309067,-0.00359244621358811,1.2184696791468346e-07,0.0,0.0,0.0,1.2184696791468346e-07,0.0,0.0,0.0,1.2184696791468346e-07,-0.87279185,-0.6276255999999988,9.7281968,8.999999999999999e-08,0.0,0.0,0.0,8.999999999999999e-08,0.0,0.0,0.0,8.999999999999999e-08
1737286260.6865323,20875,1737286260,684369472,base_link,-0.006514603395810611,-0.006450275511518031,-0.676918557137154,-0.7360008294097056,1.0,0.0,0.0,0.0,1.0,0.0,0.0,0.0,1.0,0.4010770916938782,-0.3776402473449707,-0.09002373367547985,1.2184696791468346e-07,0.0,0.0,0.0,1.2184696791468346e-07,0.0,0.0,0.0,1.2184696791468346e-07,-0.6080123,-0.3824593499999987,10.60098865,8.999999999999999e-08,0.0,0.0,0.0,8.999999999999999e-08,0.0,0.0,0.0,8.999999999999999e-08
1737286260.7867267,20876,1737286260,784370752,base_link,-0.007783138919315315,-0.008492347353970038,-0.6796224715103198,-0.7334716074962865,1.0,0.0,0.0,0.0,1.0,0.0,0.0,0.0,1.0,0.003324030200019479,0.2501252889633179,0.2778328359127044,1.2184696791468346e-07,0.0,0.0,0.0,1.2184696791468346e-07,0.0,0.0,0.0,1.2184696791468346e-07,-0.4707192,-0.47071919999999884,9.87529655,8.999999999999999e-08,0.0,0.0,0.0,8.999999999999999e-08,0.0,0.0,0.0,8.999999999999999e-08
1737286260.8859024,20877,1737286260,883370752,base_link,-0.011804337881575602,-0.008806825655981643,-0.6820717964385576,-0.7311368968477253,1.0,0.0,0.0,0.0,1.0,0.0,0.0,0.0,1.0,-0.11708667874336243,0.09612011909484865,0.08019262552261351,1.2184696791468346e-07,0.0,0.0,0.0,1.2184696791468346e-07,0.0,0.0,0.0,1.2184696791468346e-07,-0.3138128,-0.5785923499999986,11.3168741,8.999999999999999e-08,0.0,0.0,0.0,8.999999999999999e-08,0.0,0.0,0.0,8.999999999999999e-08
1737286260.984642,20878,1737286260,982356928,base_link,-0.010020022531329498,-0.008465307965809124,-0.684702828864764,-0.7287043116752538,1.0,0.0,0.0,0.0,1.0,0.0,0.0,0.0,1.0,0.15189839899539948,-0.14468327164649963,0.07287831604480745,1.2184696791468346e-07,0.0,0.0,0.0,1.2184696791468346e-07,0.0,0.0,0.0,1.2184696791468346e-07,-0.36284605000000003,-0.6766588499999989,9.26728425,8.999999999999999e-08,0.0,0.0,0.0,8.999999999999999e-08,0.0,0.0,0.0,8.999999999999999e-08
1737286261.0866592,20879,1737286261,84366400,base_link,-0.004584394738754329,-0.008879398675140043,-0.6879381020970966,-0.7257005631023665,1.0,0.0,0.0,0.0,1.0,0.0,0.0,0.0,1.0,-0.030252860859036446,0.07104511559009552,-0.02464755065739156,1.2184696791468346e-07,0.0,0.0,0.0,1.2184696791468346e-07,0.0,0.0,0.0,1.2184696791468346e-07,-0.48052585000000003,-0.07845319999999889,9.1201845,8.999999999999999e-08,0.0,0.0,0.0,8.999999999999999e-08,0.0,0.0,0.0,8.999999999999999e-08
1737286261.1849613,20880,1737286261,183358720,base_link,-0.001997116893742825,-0.00959998453921428,-0.6875531637040967,-0.7260678335399848,1.0,0.0,0.0,0.0,1.0,0.0,0.0,0.0,1.0,0.17396438121795654,-0.02929100021719932,0.05208427086472512,1.2184696791468346e-07,0.0,0.0,0.0,1.2184696791468346e-07,0.0,0.0,0.0,1.2184696791468346e-07,-0.4903325,-0.17651969999999875,10.2969825,8.999999999999999e-08,0.0,0.0,0.0,8.999999999999999e-08,0.0,0.0,0.0,8.999999999999999e-08
1737286261.2839413,20881,1737286261,282346432,base_link,-0.00523081806017517,-0.010359525809890639,-0.6858922521816714,-0.7276105669687394,1.0,0.0,0.0,0.0,1.0,0.0,0.0,0.0,1.0,0.03445584699511528,0.12499634176492692,0.0955892503261566,1.2184696791468346e-07,0.0,0.0,0.0,1.2184696791468346e-07,0.0,0.0,0.0,1.2184696791468346e-07,-0.6864655,-0.5295590999999988,9.83606995,8.999999999999999e-08,0.0,0.0,0.0,8.999999999999999e-08,0.0,0.0,0.0,8.999999999999999e-08
1737286261.383998,20882,1737286261,382340288,base_link,-0.008504229187987234,-0.01221429428387942,-0.683885647233849,-0.729437393206987,1.0,0.0,0.0,0.0,1.0,0.0,0.0,0.0,1.0,0.23668983578681946,-0.32828858494758606,0.06392125040292744,1.2184696791468346e-07,0.0,0.0,0.0,1.2184696791468346e-07,0.0,0.0,0.0,1.2184696791468346e-07,-0.2745862,-0.25497289999999884,9.71839015,8.999999999999999e-08,0.0,0.0,0.0,8.999999999999999e-08,0.0,0.0,0.0,8.999999999999999e-08
1737286261.4880023,20883,1737286261,486334656,base_link,-0.008139575293025166,-0.012330570165724879,-0.6833173055861953,-0.7299720297654284,1.0,0.0,0.0,0.0,1.0,0.0,0.0,0.0,1.0,-0.1565806120634079,0.2982304096221924,0.20484523475170133,1.2184696791468346e-07,0.0,0.0,0.0,1.2184696791468346e-07,0.0,0.0,0.0,1.2184696791468346e-07,-0.5491724,-0.23535959999999886,9.36535075,8.999999999999999e-08,0.0,0.0,0.0,8.999999999999999e-08,0.0,0.0,0.0,8.999999999999999e-08
1737286261.5839415,20884,1737286261,582326464,base_link,-0.00844426617592107,-0.010854747524389374,-0.6806853868513951,-0.7324467714120244,1.0,0.0,0.0,0.0,1.0,0.0,0.0,0.0,1.0,0.06400890648365021,-0.08219905942678453,-0.16533005237579346,1.2184696791468346e-07,0.0,0.0,0.0,1.2184696791468346e-07,0.0,0.0,0.0,1.2184696791468346e-07,-0.5687857000000001,0.019613300000001145,9.3555441,8.999999999999999e-08,0.0,0.0,0.0,8.999999999999999e-08,0.0,0.0,0.0,8.999999999999999e-08
1737286261.6840937,20885,1737286261,682320576,base_link,-0.007636344940425633,-0.012178338720020115,-0.6793235736327086,-0.7336980691053079,1.0,0.0,0.0,0.0,1.0,0.0,0.0,0.0,1.0,-0.03470649570226669,0.2152898609638214,-0.0001964622642845179,1.2184696791468346e-07,0.0,0.0,0.0,1.2184696791468346e-07,0.0,0.0,0.0,1.2184696791468346e-07,-0.30400615,-0.009806649999998774,10.01258965,8.999999999999999e-08,0.0,0.0,0.0,8.999999999999999e-08,0.0,0.0,0.0,8.999999999999999e-08
1737286261.7850058,20886,1737286261,783316480,base_link,-0.011336912437133705,-0.012795054999080424,-0.6795433627218218,-0.7334361452537514,1.0,0.0,0.0,0.0,1.0,0.0,0.0,0.0,1.0,-0.13544367253780365,0.3077414929866791,0.1508781015872955,1.2184696791468346e-07,0.0,0.0,0.0,1.2184696791468346e-07,0.0,0.0,0.0,1.2184696791468346e-07,-0.14709975,-0.16671304999999867,10.81673495,8.999999999999999e-08,0.0,0.0,0.0,8.999999999999999e-08,0.0,0.0,0.0,8.999999999999999e-08
1737286261.88416,20887,1737286261,882312896,base_link,-0.013610608079126705,-0.012225378628842298,-0.6820440616631752,-0.7310822042801322,1.0,0.0,0.0,0.0,1.0,0.0,0.0,0.0,1.0,0.07937528192996979,-0.31785377860069275,-0.06147336587309833,1.2184696791468346e-07,0.0,0.0,0.0,1.2184696791468346e-07,0.0,0.0,0.0,1.2184696791468346e-07,-0.24516625,-0.5197524499999987,11.0619012,8.999999999999999e-08,0.0,0.0,0.0,8.999999999999999e-08,0.0,0.0,0.0,8.999999999999999e-08
1737286261.984125,20888,1737286261,982309312,base_link,-0.009212380063676348,-0.011985079008965354,-0.6837377113443721,-0.7295712658954375,1.0,0.0,0.0,0.0,1.0,0.0,0.0,0.0,1.0,0.1561393290758133,-0.12339764833450316,0.06745655834674837,1.2184696791468346e-07,0.0,0.0,0.0,1.2184696791468346e-07,0.0,0.0,0.0,1.2184696791468346e-07,-0.0588399,-0.2843928499999987,10.9442214,8.999999999999999e-08,0.0,0.0,0.0,8.999999999999999e-08,0.0,0.0,0.0,8.999999999999999e-08
1737286262.0911796,20889,1737286262,89300864,base_link,-0.008828601449516806,-0.005181440228435275,-0.6858203333772585,-0.7276988929494883,1.0,0.0,0.0,0.0,1.0,0.0,0.0,0.0,1.0,-0.21960891783237457,-0.227666974067688,0.014866612851619748,1.2184696791468346e-07,0.0,0.0,0.0,1.2184696791468346e-07,0.0,0.0,0.0,1.2184696791468346e-07,-0.5295591,0.1274864500000011,9.0809579,8.999999999999999e-08,0.0,0.0,0.0,8.999999999999999e-08,0.0,0.0,0.0,8.999999999999999e-08
1737286262.1889825,20890,1737286262,185298048,base_link,-0.019925216412213703,0.0061706226514908835,-0.6846524305947648,-0.7285711759654646,1.0,0.0,0.0,0.0,1.0,0.0,0.0,0.0,1.0,0.022866642102599144,-0.15816272795200348,0.060648247599601766,1.2184696791468346e-07,0.0,0.0,0.0,1.2184696791468346e-07,0.0,0.0,0.0,1.2184696791468346e-07,-0.4511059,-0.7453053999999988,10.32640245,8.999999999999999e-08,0.0,0.0,0.0,8.999999999999999e-08,0.0,0.0,0.0,8.999999999999999e-08
1737286262.2860723,20891,1737286262,284293440,base_link,-0.023462447241327237,0.010299329182082482,-0.6862783234441405,-0.7268875429931007,1.0,0.0,0.0,0.0,1.0,0.0,0.0,0.0,1.0,0.09642435610294342,-0.24808874726295468,0.12193130701780322,1.2184696791468346e-07,0.0,0.0,0.0,1.2184696791468346e-07,0.0,0.0,0.0,1.2184696791468346e-07,-0.1372931,-0.2647795499999988,9.5712904,8.999999999999999e-08,0.0,0.0,0.0,8.999999999999999e-08,0.0,0.0,0.0,8.999999999999999e-08
1737286262.3840718,20892,1737286262,382290112,base_link,-0.01642942489795054,0.008606713188000171,-0.6971825318760485,-0.7166536930292932,1.0,0.0,0.0,0.0,1.0,0.0,0.0,0.0,1.0,-0.31943851709365845,0.47999981045722967,0.6317740082740783,1.2184696791468346e-07,0.0,0.0,0.0,1.2184696791468346e-07,0.0,0.0,0.0,1.2184696791468346e-07,-0.3138128,-0.32361944999999886,9.0025047,8.999999999999999e-08,0.0,0.0,0.0,8.999999999999999e-08,0.0,0.0,0.0,8.999999999999999e-08
1737286262.4851446,20893,1737286262,484286528,base_link,-0.012599199793141282,0.00600467486661077,-0.7230494727120323,-0.690655242545201,1.0,0.0,0.0,0.0,1.0,0.0,0.0,0.0,1.0,-0.13222980499267578,0.2706843316555025,1.264180064201355,1.2184696791468346e-07,0.0,0.0,0.0,1.2184696791468346e-07,0.0,0.0,0.0,1.2184696791468346e-07,-0.0392266,0.1470997500000012,9.80665,8.999999999999999e-08,0.0,0.0,0.0,8.999999999999999e-08,0.0,0.0,0.0,8.999999999999999e-08
1737286262.5841422,20894,1737286262,583281152,base_link,-0.020985563114237,0.004992887456839439,-0.7653853522648228,-0.6432106495962849,1.0,0.0,0.0,0.0,1.0,0.0,0.0,0.0,1.0,0.2940754294395447,-0.25255593657493575,1.539284110069275,1.2184696791468346e-07,0.0,0.0,0.0,1.2184696791468346e-07,0.0,0.0,0.0,1.2184696791468346e-07,-0.16671305,1.068924850000001,8.91424485,8.999999999999999e-08,0.0,0.0,0.0,8.999999999999999e-08,0.0,0.0,0.0,8.999999999999999e-08
1737286262.6831636,20895,1737286262,682279360,base_link,-0.0297961638137004,0.003164167470885111,-0.8222593276086625,-0.568323653235332,1.0,0.0,0.0,0.0,1.0,0.0,0.0,0.0,1.0,0.4863278865814209,-0.13600674271583532,2.142179012298584,1.2184696791468346e-07,0.0,0.0,0.0,1.2184696791468346e-07,0.0,0.0,0.0,1.2184696791468346e-07,-0.784532,-0.7453053999999988,10.14988275,8.999999999999999e-08,0.0,0.0,0.0,8.999999999999999e-08,0.0,0.0,0.0,8.999999999999999e-08
1737286262.783189,20896,1737286262,782275776,base_link,-0.019565334366484603,0.005706923592819577,-0.8881315409921109,-0.4591372285158456,1.0,0.0,0.0,0.0,1.0,0.0,0.0,0.0,1.0,0.040023449808359146,-0.024444207549094796,2.9186208248138428,1.2184696791468346e-07,0.0,0.0,0.0,1.2184696791468346e-07,0.0,0.0,0.0,1.2184696791468346e-07,0.22555295,0.37265270000000117,9.79684335,8.999999999999999e-08,0.0,0.0,0.0,8.999999999999999e-08,0.0,0.0,0.0,8.999999999999999e-08
1737286262.8853421,20897,1737286262,884271680,base_link,-0.01271298251606142,0.005061383820064816,-0.944155660595756,-0.3292155084961283,1.0,0.0,0.0,0.0,1.0,0.0,0.0,0.0,1.0,-0.03919575363397598,-0.03417874872684445,2.7543113231658936,1.2184696791468346e-07,0.0,0.0,0.0,1.2184696791468346e-07,0.0,0.0,0.0,1.2184696791468346e-07,-0.8041453000000001,-2.079009799999999,9.7870367,8.999999999999999e-08,0.0,0.0,0.0,8.999999999999999e-08,0.0,0.0,0.0,8.999999999999999e-08
1737286262.9870238,20898,1737286262,983266816,base_link,-0.005125149335490741,0.002119265654499662,-0.9798896074872647,-0.19946327655944351,1.0,0.0,0.0,0.0,1.0,0.0,0.0,0.0,1.0,0.08577587455511093,0.19369824230670962,2.6948134899139404,1.2184696791468346e-07,0.0,0.0,0.0,1.2184696791468346e-07,0.0,0.0,0.0,1.2184696791468346e-07,-0.22555295,0.08825985000000129,10.48330885,8.999999999999999e-08,0.0,0.0,0.0,8.999999999999999e-08,0.0,0.0,0.0,8.999999999999999e-08
1737286263.0838916,20899,1737286263,82261184,base_link,0.003379273192074396,0.0033201612299867084,-0.9960261693672681,-0.08893495925487466,1.0,0.0,0.0,0.0,1.0,0.0,0.0,0.0,1.0,0.13674508035182953,0.09599591791629815,1.952724575996399,1.2184696791468346e-07,0.0,0.0,0.0,1.2184696791468346e-07,0.0,0.0,0.0,1.2184696791468346e-07,-0.26477955,-0.4314925999999987,10.18910935,8.999999999999999e-08,0.0,0.0,0.0,8.999999999999999e-08,0.0,0.0,0.0,8.999999999999999e-08
1737286263.1850145,20900,1737286263,182257344,base_link,0.012199084502359398,0.00658178620384856,-0.9998442973838116,-0.010919863403128782,1.0,0.0,0.0,0.0,1.0,0.0,0.0,0.0,1.0,-0.08807020634412766,-0.027446560561656785,1.3525344133377075,1.2184696791468346e-07,0.0,0.0,0.0,1.2184696791468346e-07,0.0,0.0,0.0,1.2184696791468346e-07,0.1176798,-0.3432327499999988,9.75761675,8.999999999999999e-08,0.0,0.0,0.0,8.999999999999999e-08,0.0,0.0,0.0,8.999999999999999e-08
1737286263.2858346,20901,1737286263,283249664,base_link,0.011713584750941317,0.007014681432130889,-0.9995135371785878,0.028040598664003435,1.0,0.0,0.0,0.0,1.0,0.0,0.0,0.0,1.0,-0.15939849615097046,-0.16120593249797813,0.6020774841308594,1.2184696791468346e-07,0.0,0.0,0.0,1.2184696791468346e-07,0.0,0.0,0.0,1.2184696791468346e-07,-0.44129925000000003,-0.7943386499999989,9.551677100000001,8.999999999999999e-08,0.0,0.0,0.0,8.999999999999999e-08,0.0,0.0,0.0,8.999999999999999e-08
1737286263.385348,20902,1737286263,383246080,base_link,0.0096088007093126,0.007827428186234529,-0.9994987239347196,0.02913251053007876,1.0,0.0,0.0,0.0,1.0,0.0,0.0,0.0,1.0,0.0013423454947769642,-0.006697388365864787,-0.27136048674583435,1.2184696791468346e-07,0.0,0.0,0.0,1.2184696791468346e-07,0.0,0.0,0.0,1.2184696791468346e-07,-0.5099458,0.8237586000000011,9.5320638,8.999999999999999e-08,0.0,0.0,0.0,8.999999999999999e-08,0.0,0.0,0.0,8.999999999999999e-08
1737286263.4844666,20903,1737286263,482241472,base_link,0.004067609883141869,0.006929821260643136,-0.9999443815649365,0.006831244678011106,1.0,0.0,0.0,0.0,1.0,0.0,0.0,0.0,1.0,-0.24538365006446838,0.04175259172916406,-0.5335622429847717,1.2184696791468346e-07,0.0,0.0,0.0,1.2184696791468346e-07,0.0,0.0,0.0,1.2184696791468346e-07,-0.38245935,0.20593965000000122,10.01258965,8.999999999999999e-08,0.0,0.0,0.0,8.999999999999999e-08,0.0,0.0,0.0,8.999999999999999e-08
1737286263.585618,20904,1737286263,584241728,base_link,0.0003531311345085489,0.0029472713345676115,-0.9998917695762387,-0.014409650369815563,1.0,0.0,0.0,0.0,1.0,0.0,0.0,0.0,1.0,0.3385317027568817,-0.12214215844869616,-0.20194165408611295,1.2184696791468346e-07,0.0,0.0,0.0,1.2184696791468346e-07,0.0,0.0,0.0,1.2184696791468346e-07,-0.0588399,-0.019613299999998765,10.091042850000001,8.999999999999999e-08,0.0,0.0,0.0,8.999999999999999e-08,0.0,0.0,0.0,8.999999999999999e-08
1737286263.6855896,20905,1737286263,683242752,base_link,-0.000466420223746349,-0.00735905914275478,-0.9999366671830979,-0.008502254022714761,1.0,0.0,0.0,0.0,1.0,0.0,0.0,0.0,1.0,0.39693453907966614,-0.009246705099940244,0.45829397439956665,1.2184696791468346e-07,0.0,0.0,0.0,1.2184696791468346e-07,0.0,0.0,0.0,1.2184696791468346e-07,-0.3530394,0.03922660000000127,10.395049,8.999999999999999e-08,0.0,0.0,0.0,8.999999999999999e-08,0.0,0.0,0.0,8.999999999999999e-08
1737286263.7856734,20906,1737286263,783239168,base_link,-0.002576651378617263,-0.01876266552188741,-0.9994110941163716,0.028614475485381263,1.0,0.0,0.0,0.0,1.0,0.0,0.0,0.0,1.0,0.04883147031068802,0.2123935222625734,1.3124357461929321,1.2184696791468346e-07,0.0,0.0,0.0,1.2184696791468346e-07,0.0,0.0,0.0,1.2184696791468346e-07,-0.18632635,0.5687857000000013,10.18910935,8.999999999999999e-08,0.0,0.0,0.0,8.999999999999999e-08,0.0,0.0,0.0,8.999999999999999e-08
1737286263.8848047,20907,1737286263,882236608,base_link,-0.0030769685944645967,-0.02563267864731678,-0.9963350804476914,0.08154695284879904,1.0,0.0,0.0,0.0,1.0,0.0,0.0,0.0,1.0,0.4506118595600128,-0.150225594639778,1.0389678478240967,1.2184696791468346e-07,0.0,0.0,0.0,1.2184696791468346e-07,0.0,0.0,0.0,1.2184696791468346e-07,-0.1372931,-1.0493115499999985,11.07170785,8.999999999999999e-08,0.0,0.0,0.0,8.999999999999999e-08,0.0,0.0,0.0,8.999999999999999e-08
1737286263.9864566,20908,1737286263,984234048,base_link,-0.0024654425075598414,-0.028606691384839792,-0.9908727249306009,0.13170733384994238,1.0,0.0,0.0,0.0,1.0,0.0,0.0,0.0,1.0,0.22849081456661224,-0.2856275141239165,0.7240162491798401,1.2184696791468346e-07,0.0,0.0,0.0,1.2184696791468346e-07,0.0,0.0,0.0,1.2184696791468346e-07,-0.51975245,-0.22555294999999867,10.67944185,8.999999999999999e-08,0.0,0.0,0.0,8.999999999999999e-08,0.0,0.0,0.0,8.999999999999999e-08
1737286264.0906403,20909,1737286264,89226368,base_link,0.005838984437137773,-0.02639699035238403,-0.9858647129398985,0.16534773340149223,1.0,0.0,0.0,0.0,1.0,0.0,0.0,0.0,1.0,0.14834925532341003,-0.1627978235483169,0.44986268877983093,1.2184696791468346e-07,0.0,0.0,0.0,1.2184696791468346e-07,0.0,0.0,0.0,1.2184696791468346e-07,-0.2941995,0.28439285000000114,9.4536106,8.999999999999999e-08,0.0,0.0,0.0,8.999999999999999e-08,0.0,0.0,0.0,8.999999999999999e-08
1737286264.1847842,20910,1737286264,182223296,base_link,0.013789377315108261,-0.020367739401791186,-0.9843502133395284,0.17449832596144582,1.0,0.0,0.0,0.0,1.0,0.0,0.0,0.0,1.0,-0.17564250528812408,0.137382909655571,0.11953815072774886,1.2184696791468346e-07,0.0,0.0,0.0,1.2184696791468346e-07,0.0,0.0,0.0,1.2184696791468346e-07,-0.0784532,-0.1667130499999989,9.022118,8.999999999999999e-08,0.0,0.0,0.0,8.999999999999999e-08,0.0,0.0,0.0,8.999999999999999e-08
1737286264.2835014,20911,1737286264,282220736,base_link,0.016447525517804724,-0.0219620934245469,-0.9865126895111475,0.1613687044945044,1.0,0.0,0.0,0.0,1.0,0.0,0.0,0.0,1.0,-0.12342016398906708,0.10194508731365202,-0.09101853519678117,1.2184696791468346e-07,0.0,0.0,0.0,1.2184696791468346e-07,0.0,0.0,0.0,1.2184696791468346e-07,-0.2941995,0.058839900000001166,9.5124505,8.999999999999999e-08,0.0,0.0,0.0,8.999999999999999e-08,0.0,0.0,0.0,8.999999999999999e-08
1737286264.3855212,20912,1737286264,384214336,base_link,0.016746474843988966,-0.01960013951183645,-0.9900573865764045,0.13828145716948587,1.0,0.0,0.0,0.0,1.0,0.0,0.0,0.0,1.0,-0.31523942947387695,0.12322545051574703,-0.34876060485839844,1.2184696791468346e-07,0.0,0.0,0.0,1.2184696791468346e-07,0.0,0.0,0.0,1.2184696791468346e-07,-0.14709975,-1.0885381499999986,10.3362091,8.999999999999999e-08,0.0,0.0,0.0,8.999999999999999e-08,0.0,0.0,0.0,8.999999999999999e-08
1737286264.484521,20913,1737286264,483208192,base_link,0.021508629201445632,-0.027454339491405275,-0.9928632282687183,0.11404493879512739,1.0,0.0,0.0,0.0,1.0,0.0,0.0,0.0,1.0,0.4389890134334564,-0.18037170171737674,-0.2901812195777893,1.2184696791468346e-07,0.0,0.0,0.0,1.2184696791468346e-07,0.0,0.0,0.0,1.2184696791468346e-07,-0.1372931,-0.6962721499999988,10.28717585,8.999999999999999e-08,0.0,0.0,0.0,8.999999999999999e-08,0.0,0.0,0.0,8.999999999999999e-08
1737286264.584672,20914,1737286264,582202560,base_link,0.027636710326761117,-0.03069504050493419,-0.9941333826835408,0.09996421442144154,1.0,0.0,0.0,0.0,1.0,0.0,0.0,0.0,1.0,0.3644293248653412,-0.1475927531719208,-0.2821875214576721,1.2184696791468346e-07,0.0,0.0,0.0,1.2184696791468346e-07,0.0,0.0,0.0,1.2184696791468346e-07,-0.2157463,-0.18632634999999886,9.36535075,8.999999999999999e-08,0.0,0.0,0.0,8.999999999999999e-08,0.0,0.0,0.0,8.999999999999999e-08
1737286264.6856174,20915,1737286264,683199744,base_link,0.04834475387160366,-0.038232691922812076,-0.993462290469141,0.09609226533513071,1.0,0.0,0.0,0.0,1.0,0.0,0.0,0.0,1.0,-0.030484862625598907,0.6038837432861328,0.09744171053171151,1.2184696791468346e-07,0.0,0.0,0.0,1.2184696791468346e-07,0.0,0.0,0.0,1.2184696791468346e-07,0.24516625,-0.16671304999999875,10.18910935,8.999999999999999e-08,0.0,0.0,0.0,8.999999999999999e-08,0.0,0.0,0.0,8.999999999999999e-08
1737286264.789519,20916,1737286264,783191296,base_link,0.06413999651050015,-0.03969005991835697,-0.9923093566432972,0.09814734183601642,1.0,0.0,0.0,0.0,1.0,0.0,0.0,0.0,1.0,0.3588654398918152,0.14109954237937927,0.10472694039344786,1.2184696791468346e-07,0.0,0.0,0.0,1.2184696791468346e-07,0.0,0.0,0.0,1.2184696791468346e-07,-0.20593965,-0.04903324999999877,10.03220295,8.999999999999999e-08,0.0,0.0,0.0,8.999999999999999e-08,0.0,0.0,0.0,8.999999999999999e-08
1737286264.8848476,20917,1737286264,882188224,base_link,0.07685639514709121,-0.042793240201109466,-0.9905949245092543,0.10480233134138178,1.0,0.0,0.0,0.0,1.0,0.0,0.0,0.0,1.0,0.2256855070590973,-0.13969966769218442,0.132952094078064,1.2184696791468346e-07,0.0,0.0,0.0,1.2184696791468346e-07,0.0,0.0,0.0,1.2184696791468346e-07,-0.36284605000000003,0.2059396500000011,9.0417313,8.999999999999999e-08,0.0,0.0,0.0,8.999999999999999e-08,0.0,0.0,0.0,8.999999999999999e-08
1737286264.9842205,20918,1737286264,982185664,base_link,0.08125801258663594,-0.038715980354696165,-0.9894660137953772,0.1133808440589984,1.0,0.0,0.0,0.0,1.0,0.0,0.0,0.0,1.0,0.3074646592140198,-0.2377100884914398,0.13214911520481112,1.2184696791468346e-07,0.0,0.0,0.0,1.2184696791468346e-07,0.0,0.0,0.0,1.2184696791468346e-07,-0.0196133,-0.2843928499999986,11.40513395,8.999999999999999e-08,0.0,0.0,0.0,8.999999999999999e-08,0.0,0.0,0.0,8.999999999999999e-08
1737286265.0907924,20919,1737286265,89177472,base_link,0.0637673665897328,-0.03510126741731581,-0.9899785068247899,0.12101313981906142,1.0,0.0,0.0,0.0,1.0,0.0,0.0,0.0,1.0,0.16466817259788513,-0.8463208079338074,-0.08241779357194891,1.2184696791468346e-07,0.0,0.0,0.0,1.2184696791468346e-07,0.0,0.0,0.0,1.2184696791468346e-07,-0.6472389000000001,-0.05883989999999883,9.5909037,8.999999999999999e-08,0.0,0.0,0.0,8.999999999999999e-08,0.0,0.0,0.0,8.999999999999999e-08
1737286265.184717,20920,1737286265,182172864,base_link,0.04033537513435398,-0.03809661594374917,-0.9908695847365308,0.12287868574517163,1.0,0.0,0.0,0.0,1.0,0.0,0.0,0.0,1.0,0.2572278082370758,-0.549476683139801,0.0423195771872998,1.2184696791468346e-07,0.0,0.0,0.0,1.2184696791468346e-07,0.0,0.0,0.0,1.2184696791468346e-07,-0.53936575,0.3138128000000011,8.97308475,8.999999999999999e-08,0.0,0.0,0.0,8.999999999999999e-08,0.0,0.0,0.0,8.999999999999999e-08
1737286265.2856548,20921,1737286265,284168000,base_link,0.0285086184019404,-0.04116829447326422,-0.9914886089574222,0.1201780700238233,1.0,0.0,0.0,0.0,1.0,0.0,0.0,0.0,1.0,-0.12433063238859177,-0.02022552490234376,-0.08282832056283951,1.2184696791468346e-07,0.0,0.0,0.0,1.2184696791468346e-07,0.0,0.0,0.0,1.2184696791468346e-07,-0.0588399,-0.1667130499999988,9.58109705,8.999999999999999e-08,0.0,0.0,0.0,8.999999999999999e-08,0.0,0.0,0.0,8.999999999999999e-08
1737286265.3845856,20922,1737286265,383161088,base_link,0.025396447367639532,-0.04060301893776274,-0.9921106849448469,0.1158568260074011,1.0,0.0,0.0,0.0,1.0,0.0,0.0,0.0,1.0,-0.13452591001987457,0.08592692017555234,-0.17756780982017517,1.2184696791468346e-07,0.0,0.0,0.0,1.2184696791468346e-07,0.0,0.0,0.0,1.2184696791468346e-07,-0.14709975,-0.00980664999999894,8.6494653,8.999999999999999e-08,0.0,0.0,0.0,8.999999999999999e-08,0.0,0.0,0.0,8.999999999999999e-08
1737286265.483811,20923,1737286265,482156480,base_link,0.04179151581174474,-0.03942889286323684,-0.9917837714334252,0.1142969043107791,1.0,0.0,0.0,0.0,1.0,0.0,0.0,0.0,1.0,-0.13118115067481995,0.45036280155181885,-0.13024057447910314,1.2184696791468346e-07,0.0,0.0,0.0,1.2184696791468346e-07,0.0,0.0,0.0,1.2184696791468346e-07,-0.04903325,0.08825985000000128,10.36562905,8.999999999999999e-08,0.0,0.0,0.0,8.999999999999999e-08,0.0,0.0,0.0,8.999999999999999e-08
1737286265.5858114,20924,1737286265,584154432,base_link,0.07182780922352845,-0.031145253401971305,-0.9899660796156171,0.11763460470100306,1.0,0.0,0.0,0.0,1.0,0.0,0.0,0.0,1.0,-0.4535332918167114,0.7664934396743774,0.12029463052749624,1.2184696791468346e-07,0.0,0.0,0.0,1.2184696791468346e-07,0.0,0.0,0.0,1.2184696791468346e-07,0.06864655,0.16671305000000125,10.11065615,8.999999999999999e-08,0.0,0.0,0.0,8.999999999999999e-08,0.0,0.0,0.0,8.999999999999999e-08
1737286265.6908143,20925,1737286265,688147264,base_link,0.09434946420188038,-0.024347139059179377,-0.9879858745858483,0.11995543773955225,1.0,0.0,0.0,0.0,1.0,0.0,0.0,0.0,1.0,0.1921437680721283,0.2023779004812241,0.14301966130733487,1.2184696791468346e-07,0.0,0.0,0.0,1.2184696791468346e-07,0.0,0.0,0.0,1.2184696791468346e-07,-0.2549729,-0.6570455499999988,10.3754357,8.999999999999999e-08,0.0,0.0,0.0,8.999999999999999e-08,0.0,0.0,0.0,8.999999999999999e-08
1737286265.784827,20926,1737286265,783142400,base_link,0.10289059853126674,-0.018472002389985222,-0.9872051501679009,0.12040889229435736,1.0,0.0,0.0,0.0,1.0,0.0,0.0,0.0,1.0,-0.008126924745738506,-0.11243689060211183,-0.09226537495851515,1.2184696791468346e-07,0.0,0.0,0.0,1.2184696791468346e-07,0.0,0.0,0.0,1.2184696791468346e-07,-0.2353596,-0.6766588499999987,10.4342756,8.999999999999999e-08,0.0,0.0,0.0,8.999999999999999e-08,0.0,0.0,0.0,8.999999999999999e-08
